timestamp,ax,ay,az,gx,gy,gz
0.0,-0.12865294727742463,0.5555064429541945,1.044678878012566,-0.002379522859118797,0.3963291929853296,0.02588682964374566
20.0,0.11623474202924797,0.5876535813368029,0.9757987770892147,0.07353374437607156,0.42850385465530316,0.016940389152343804
40.0,0.1924991092817375,0.5700492992557228,0.972356977768767,0.10349960800583412,0.37161990635777603,-0.00010574895112129081
60.0,0.2797887718644143,0.5260549011713572,0.8987650074078719,0.21809264770621772,0.3440698658542824,-0.012852185094226065
80.0,0.38059466277043674,0.4659801572005164,1.0376039982125471,0.25661305497044434,0.30940984752754125,-0.006993477410529258
100.0,0.4541701270844777,0.3655606319893445,1.0178594279444224,0.32777546593738627,0.23100816080244937,-0.0008338403750657382
120.0,0.5722301716581193,0.22318502409922641,0.93135557000933,0.36332794487651027,0.15160472370031466,-0.0007068805592122965
140.0,0.5012203213839743,0.009161398374967877,1.000407410584981,0.3683077048318994,0.06932720079390424,0.015270337070693306
160.0,0.6237989037616316,-0.03858801914354633,1.0137641843213223,0.40972061046295033,0.027067977334748056,0.0023852829015491798
180.0,0.5267313247622025,-0.036689981864015994,0.9937978679510037,0.361534538052732,-0.08575126599752497,0.0073450367332412
200.0,0.5773758144161935,-0.24561583662971825,1.0445441902400667,0.3690386646153102,-0.15478281961040147,0.013801873107488807
220.0,0.5321346370297857,-0.21062240840571284,1.0187591806674587,0.3692269604174329,-0.20290980106441092,-0.003156625913955064
240.0,0.4227394050204056,-0.3844750618570866,1.0489395221409474,0.3054754056155943,-0.2691537071024282,-0.00033007093904258004
260.0,0.44714074232828205,-0.5010674945375748,0.9814751586994013,0.19902215700429754,-0.3126781879160953,0.01620591093509748
280.0,0.3133097661226959,-0.5743141292103453,1.056174209896045,0.2106498765958262,-0.3204222014358711,-0.005959597883083759
300.0,0.24477937457846333,-0.5859600313554837,0.9513422506370112,0.1404047930785304,-0.4083885696455985,-0.0009891545920462808
320.0,0.045105790210392224,-0.5658922767184034,0.9720367002660381,0.02285023411110309,-0.41385488332687015,0.014191612927458682
340.0,-0.08400040530663369,-0.556673087823723,0.9752694155725304,-0.040357869185435415,-0.38587022547097816,-0.006614306968292645
360.0,-0.16489803993139676,-0.4956608919584533,0.982788957599961,-0.0918143330060588,-0.356813791018156,0.017846599496595665
380.0,-0.16510143321979037,-0.49845520281297717,1.0388275561357054,-0.18142703749405711,-0.3874088923935234,-0.0026712944331097614
400.0,-0.38231970668143755,-0.5155026731241868,1.01129336067471,-0.23422340870645209,-0.35981103379465196,-0.006094350866536895
420.0,-0.41340550805506426,-0.4097850465594646,0.9763855969916724,-0.2650042565515212,-0.2877353006213699,0.00831669100554632
440.0,-0.5105187436495809,-0.21757764445752475,1.0265857209673888,-0.3318896236218398,-0.20699471501594557,0.006560763426300659
460.0,-0.5765373602137018,-0.211448902700816,0.9734149318492076,-0.35318907273501876,-0.12056567796604042,0.013331567805925685
480.0,-0.5663909663398699,-0.044952213776937075,0.9901056192761012,-0.39476555855752365,-0.046584352676646956,0.020914211732664383
500.0,-0.5918629898289589,-0.011943689480196352,0.9981696095267392,-0.4011185993052964,-0.0021500602327596055,-0.00827856419236872
520.0,-0.5300232653050424,0.13902831322056405,1.0066454404258887,-0.4026030665675557,0.10871564067533986,4.612794098419425e-05
540.0,-0.5392929777622787,0.33643670167490336,1.0149402289904557,-0.39535497985816176,0.1993946360144735,0.008292624701959565
560.0,-0.5324568821467008,0.34019990518742016,1.0577431051734225,-0.3255200746309172,0.2295346385683312,-0.015165228466284765
580.0,-0.34147154977812877,0.4750630516179053,0.9883740463352386,-0.2523385066247545,0.26240078247512527,-0.002177880485740257
600.0,-0.3558951165756896,0.5369290204123935,1.0127288873008173,-0.2135834415938343,0.3572637017728664,0.008511712641752586
620.0,-0.2151707174649797,0.5920377937589579,1.0225311898875304,-0.15211380116168324,0.34822163088122027,-0.0010585175204750827
640.0,-0.13921722576892603,0.5806993303379218,0.9970430990240142,-0.1008196838044547,0.40148608332085883,-0.006094029340072446
660.0,0.024878741607102444,0.6791521811807967,1.001539829362905,-0.025106624162980595,0.3956586285521726,0.009282730096674626
680.0,0.21325561500389728,0.5630719591424186,1.0104268792826279,0.07081060746113922,0.3695921456179851,-0.008004082280580386
700.0,0.25399674471104045,0.5320253540853501,1.0136006128073498,0.1329245382253872,0.34991056478250665,-0.005923142411180452
720.0,0.41433500932385725,0.5239820448809118,1.0213479549965705,0.21124843033812318,0.32835454425831967,0.0006118471873579147
740.0,0.3898083784794909,0.36784918581265147,1.0048202525068053,0.2695735960644575,0.2497924394337228,0.0035173822270852524
760.0,0.5191288356963661,0.36024032849604565,0.9815426775025561,0.33496823810031223,0.2682305019007673,-5.789789978161373e-05
780.0,0.5171898833435615,0.257353340265097,0.9642268168703108,0.35542577980829504,0.15107809996299132,0.011175175659171852
800.0,0.5848634026027894,0.19009280809956575,0.9624098120835893,0.38686481113891946,0.10813003458986811,-0.0032875394637400636
820.0,0.6155651137443574,-0.05076731894653365,0.9136005489085548,0.36623132174511597,0.029767890704489777,0.0023998695213312713
840.0,0.5391881112661676,-0.19752695749512367,1.0498051578075926,0.37459796611173485,-0.04142609897448419,-0.01570978604445138
860.0,0.539869710071869,-0.18601222312077592,0.9933279084286762,0.38949732271424065,-0.1575430954736177,-0.0028271622453467054
880.0,0.48346841888453,-0.26757524673423766,0.9813434379439974,0.33664038381081973,-0.2118523483952937,0.010102148541960208
900.0,0.4143688052120179,-0.4153948247224237,1.0070071418320667,0.322738382875966,-0.2511532863247661,-0.012914069355386183
920.0,0.3249806292083677,-0.37402713045054964,1.0098871742680327,0.28663143240767114,-0.2940619133652573,0.008262385630948478
940.0,0.2788945227703779,-0.543242848844859,1.0384122105210063,0.16955391137261408,-0.3619262084799723,-0.007407041110273332
960.0,0.12427853526427737,-0.5866478545216232,0.9806944357045816,0.1292038368389463,-0.40292917494676617,0.011020938282783622
980.0,0.01337106031774489,-0.6663898298885819,1.0031448813698352,-0.0054882982617818765,-0.35725558626005166,-0.009574078413327287
1000.0,-0.11324135976166304,-0.5704378916746861,0.9809964502018728,-0.043971687192635625,-0.41392216661861836,0.009575117736187735
1020.0,-0.22132280103012264,-0.573115878198409,1.0700513834515677,-0.10257437803966307,-0.41119906136133744,-0.0016704485535781524
1040.0,-0.3140653521780032,-0.5145092644331442,1.01677137368074,-0.20629101001380162,-0.311851213180348,-0.0005769250771347984
1060.0,-0.32855868130620647,-0.4484966610375876,1.0261966848183586,-0.24246871995515742,-0.32889396875943516,-0.01417720439840532
1080.0,-0.43391539661865053,-0.400923940197364,0.9830123659867682,-0.3048405984977235,-0.2533224401260156,-4.454480483616311e-05
1100.0,-0.5231148892324027,-0.20158386175153864,0.9966757755848,-0.348387889133942,-0.21793876270746565,-0.006672375932360486
1120.0,-0.5719663270162031,-0.1807086418570333,1.0084945804732939,-0.38150878508185193,-0.15869054052373605,0.014353296599652683
1140.0,-0.48950813178985936,-0.045779271340407185,0.9886057501293503,-0.4151720477619012,-0.06591367879336116,0.0007685814511604024
1160.0,-0.646008419122357,0.06360867895069862,0.9910437272367222,-0.40439029177380953,0.007419734363074694,0.005473550646874713
1180.0,-0.6284884297800878,0.14705337432435553,1.0354393463568534,-0.38290612300232085,0.07574343375575063,-0.0004942788220927586
1200.0,-0.4481289497656186,0.2726096488054692,1.022156978161771,-0.35728633525638454,0.15039608119391756,-0.0023242631746799936
1220.0,-0.4913818597772141,0.32781644049391045,1.0233554038537664,-0.28975622728974,0.2845552194103394,0.012310547697635519
1240.0,-0.3870232807607361,0.37396074629633264,0.9395102782518031,-0.25958306204953596,0.27029952516687067,-0.014494684125539647
1260.0,-0.32503538151422573,0.5661548491262322,1.011909538266413,-0.21987417402148296,0.3221020878869106,-0.004862809462418459
1280.0,-0.20532611868212075,0.5940668350615955,0.9947751005024461,-0.13615937462285377,0.37992011617454746,-0.0002414966285130783
1300.0,-0.03197928347875424,0.5425618533961067,0.9845411098421516,-0.04234188755178186,0.3823463839082849,-0.017550576907182425
1320.0,-0.08546105841562394,0.5904480812204147,1.0113403514926609,-0.02242470895754255,0.4066149164344529,-0.020821632766082385
1340.0,0.08795844949404422,0.5358814989997415,0.9742090230924602,0.05280178920671621,0.38132923336626195,0.0012543404584862527
1360.0,0.2238956420799567,0.5285028903056924,0.9853769082385269,0.14263197701997868,0.37425227370412195,0.011363308506653983
1380.0,0.30822457876576326,0.5308142913200142,0.9571899890673949,0.23199650454990897,0.32960743703415385,0.00496193092280921
1400.0,0.32908182131217717,0.45280206605412704,1.0195914488643334,0.24950316533986727,0.28190573627549603,0.007484749591902126
1420.0,0.5510548109731929,0.26608249207124984,1.0528793721550775,0.28258246362051176,0.2181122403093121,-0.008445510300954156
1440.0,0.48829656676852695,0.250829074898772,0.9891749647761405,0.37896248176989084,0.1651411270906469,0.0024770739461127634
1460.0,0.5343273587640027,0.2607080786747523,1.0187206089187995,0.3549667322510934,0.12171053448245833,-0.01887262737248929
1480.0,0.5650876064511052,-0.0016164552715828596,1.0028802209860956,0.38076631054282717,0.03609873734558487,-0.000525369699445868
1500.0,0.6052824943635975,-0.11020735986069045,1.0084972125532015,0.4170695060650864,-0.0937735384781617,-0.007197777410742528
1520.0,0.6343036155453566,-0.16325062623953335,1.0153010450379154,0.3585080983404938,-0.15223929468018538,0.00189022731016677
1540.0,0.4953388045757374,-0.214381697045466,0.9637061104992143,0.33531465932830756,-0.24231278890713123,-0.0016774879605050144
1560.0,0.42419222696680925,-0.48769155845156725,0.9838163331216788,0.29933042924079634,-0.2678287434330109,0.003396200748679979
1580.0,0.4818357783362809,-0.49044174918308225,1.0219236898148834,0.2277453343158404,-0.28513504479719565,-0.015802458677439984
1600.0,0.3165243547585261,-0.5282769197485969,1.015022050609881,0.2100557846506991,-0.37562869479793454,-0.0030690304885070143
1620.0,0.2729743259134006,-0.5229083839501834,0.9773586183752135,0.15845597255706745,-0.34999069967665336,-0.0009098268319454553
1640.0,0.03729406298599654,-0.6263590512299829,1.0282674766400288,0.04008529508318462,-0.39910195171552304,0.002257622165247458
1660.0,-0.06912538949771593,-0.5786456702761004,1.004814127156977,-0.023517425979389408,-0.4213561555002662,-0.002499056902841396
1680.0,-0.2519259590567679,-0.6382597302461027,0.9905452415327196,-0.1296593102863455,-0.3719305888023806,-0.004756277667893287
1700.0,-0.27837680584990576,-0.6423716351652999,0.9969404672259433,-0.16492116460200365,-0.3412926898689106,0.00861169951261638
1720.0,-0.30407027750741356,-0.39243461353943293,1.0161681908022901,-0.22929055620116384,-0.3113954676738398,-0.009311325820143986
1740.0,-0.4793638516207114,-0.36658768009511283,0.8832977806576204,-0.32830678428314236,-0.2728933586842165,-0.0012634890579322228
1760.0,-0.5078658426179632,-0.3510506321398513,0.954447125528632,-0.35228365813284196,-0.23505459721232067,0.022766478953870885
1780.0,-0.5967529499857217,-0.1849266018182062,0.9754996512572421,-0.37491967417425615,-0.09716916844726847,0.011564507273448021
1800.0,-0.5825609823950575,-0.06835142731199458,1.0090611692377542,-0.41173150276208514,-0.021411187301784942,-0.0034067500002695227
1820.0,-0.6104292595323139,0.03086140424193895,1.0101987153701624,-0.38168561524518296,0.019086114981270195,0.01633339704336923
1840.0,-0.6025289249437757,0.23096869116608232,0.9925636714117183,-0.3699576837887176,0.07369967025783303,0.006317520464502638
1860.0,-0.4918454632393004,0.22759314094311053,1.0330285617658068,-0.3581520053478997,0.17980991782849332,-0.005820495748385615
1880.0,-0.4022266941020545,0.26085809774877405,1.0038503281719011,-0.34547607264652924,0.2218025328002638,0.010074014078762279
1900.0,-0.431186785853734,0.37778738263376327,0.9353374315095853,-0.26384552985325305,0.308745617974807,-0.02333041701735826
1920.0,-0.3736618976853845,0.4430473532842478,1.022636380676136,-0.26461081958200233,0.37496677741037876,-0.008827390157324337
1940.0,-0.1262866383411091,0.5642252597974134,0.9885271242741027,-0.1393480912285697,0.3734283193123173,0.017428364969092416
1960.0,-0.178275685724261,0.671561498312351,1.006218898329989,-0.056606862466594285,0.4119214888942668,0.009271265808574871
1980.0,0.04742735538148169,0.7156049226964634,1.0069716195614873,0.015845722941928316,0.39568254534096253,-0.011657290455845546
