timestamp,ax,ay,az,gx,gy,gz
0.0,-0.00281955983515492,0.7034647046429717,1.0092959588253658,-0.0029245606019049964,0.44172351174279467,-0.005840985726661572
20.0,0.1454157458146239,0.533654544622118,1.0225030723182618,0.05844997817555976,0.39070242289833673,-0.015151930721296863
40.0,0.21687965896518574,0.6073078902547551,0.9903959819889766,0.1658077441526579,0.385045661073471,0.00213875409143681
60.0,0.22750526389451475,0.4994135999106186,1.0016295757189777,0.20875452152434976,0.3447869755193756,0.009998404542519188
80.0,0.39336880463785084,0.4827855348875977,0.9365379905181559,0.2817969425348951,0.2966540121607455,-0.007922405454139898
100.0,0.48767174822184645,0.32727705177778177,1.0058731662409062,0.34271357336377534,0.227080299978674,0.02007965881909157
120.0,0.576286118924625,0.26511718391110567,0.9931281402070113,0.3422637935505736,0.1756951682527921,0.0074315226909064955
140.0,0.5791418934568565,0.15155915195649275,0.9799633027825608,0.43118380956928165,0.07128934363780415,0.007735183354497485
160.0,0.5914254965875692,0.017436177355054108,1.0196915002295326,0.4086935003431504,0.007994863153260263,0.008962301569283881
180.0,0.5561361990458679,-0.08821496194827133,0.9512525759059883,0.3867405483810584,-0.07394718300245519,0.01480104521915532
200.0,0.6100336143617962,-0.16742975580370312,0.998770922768295,0.3863207249045847,-0.1332630114645679,0.011027495343703944
220.0,0.47131738298505094,-0.32629152249738913,1.0166272858613976,0.3803991700029768,-0.1825693919242073,-0.009247779569870686
240.0,0.4651427751449036,-0.42161424527577956,1.020351093021013,0.3204570553395438,-0.2603166289466761,-0.02089417767549559
260.0,0.4331789957267795,-0.43063631140991765,0.9661163124297876,0.2599320358518264,-0.28391654649763387,-0.007792259662188779
280.0,0.26633312388922337,-0.49671583750552867,0.9916780673178243,0.2092899407976974,-0.3751555415555076,0.00499562744482837
300.0,0.15638452371662764,-0.5283903881672299,0.9710077054791639,0.1030102233241762,-0.3691209314079485,0.014271527911022945
320.0,0.02014653721774448,-0.4955956796528186,0.997881704400833,0.06494725895939116,-0.3899202244538423,-0.0008613624828412722
340.0,-0.03251055954003104,-0.5568390279454675,1.0232929173035863,-0.06621675675579089,-0.4105645391263171,0.016893006769575298
360.0,-0.0806889352055418,-0.5856340342309947,1.007367283214494,-0.13932674436515063,-0.38362791530494295,-0.0066675391539984755
380.0,-0.25924493577043506,-0.5677022734328439,0.9556928648052732,-0.17732124564926602,-0.37293691092912434,-0.015099664241147804
400.0,-0.3804258396875339,-0.48951305190026295,1.0142652836922765,-0.23109542749606185,-0.2520740497179531,0.007751543469093391
420.0,-0.5037521351152614,-0.43437858024734366,0.996842284474762,-0.3077180715937526,-0.22583890436110549,0.0018457009561898474
440.0,-0.47666860587192983,-0.2584783713438863,0.9479177010045822,-0.34981397237594114,-0.19327710129907294,-0.011601418501899382
460.0,-0.5868066372483884,-0.09602473119691875,0.9875679833154694,-0.4014578067581721,-0.14235960451717694,0.0025134446145928043
480.0,-0.6028764411587777,-0.12449156466814078,0.9740088607375276,-0.3792582550504542,-0.017724553532281327,0.0050893839283172
500.0,-0.5561904297358886,-0.0611354883173431,0.995057715102142,-0.36925208823329886,0.054777981953234176,0.006105685063622413
520.0,-0.5872191882255857,0.08365375170312728,1.003014950989765,-0.35181851689310495,0.1038228498716842,-0.009996581071691765
540.0,-0.5960799369585641,0.24665813644350176,0.9914716633690067,-0.3508113906511348,0.163661958499194,-0.005734488387288797
560.0,-0.45032611714659493,0.3115058638957975,0.9768376541490696,-0.35446219351675634,0.2329761880513407,-0.007475040831189987
580.0,-0.47348222895464753,0.4003414337088768,0.9673416959148335,-0.2688198033120709,0.3103717644514067,0.002474902966926845
600.0,-0.29098745391452097,0.48436614890502216,1.000878442314501,-0.21693137463222886,0.34050869456048677,0.0026053733006462182
620.0,-0.24082871721117208,0.5796375835006882,0.985043044270795,-0.1458984170354327,0.37328219757129555,-0.007159500786176909
640.0,-0.16131413422820406,0.5833545787906029,1.0296956270962832,-0.062438472970734564,0.38646591475224373,0.018541485497256302
660.0,0.04416825240405775,0.6455758924625957,1.0216285113763326,-0.012338298704821341,0.4087840745679176,0.007685448593861622
680.0,0.19506560744848106,0.6391712055897176,0.979485284162873,0.08036641600846185,0.4043313215513586,0.0004413498494049837
700.0,0.296017151686751,0.5373140048977347,0.9713533303004446,0.15260011686175592,0.3778205380526373,-0.01123547882421897
720.0,0.310822111638249,0.480339289108795,0.9954006364747657,0.23160118175427782,0.29972710132890645,0.02127811906492865
740.0,0.4347501894090572,0.4429606962652012,0.9776981988417734,0.23369759141600144,0.29002833853903387,-0.0006559520342450128
760.0,0.4311487757620105,0.3466077391013727,1.0092005508671764,0.31689111510272966,0.24481145409245844,0.0022447364903983432
780.0,0.53105336658873,0.2729436426219704,0.9779605476816698,0.34706342013365016,0.1426380959090943,-0.003058252821888107
800.0,0.6273667683200493,0.09975147180638169,0.9943448516130313,0.3885044793291324,0.07545922266174196,-0.011579940089027773
820.0,0.5676119424016703,0.06972545909218605,1.0218140585121218,0.4117442846292517,0.023697105855812667,0.0005268268177573899
840.0,0.5002901416537601,-0.06098225928814462,0.98863641021356,0.37047689124085165,-0.08622851824116703,-0.004057766140941358
860.0,0.602601966435163,-0.2655897357098139,1.0314054115938986,0.4038344202912156,-0.12181800280853057,-0.0044209134874050975
880.0,0.5493133837527152,-0.2791462950067467,1.0155399475889328,0.34557035479304943,-0.1749411845836943,-0.006662083692082051
900.0,0.5173200649388527,-0.37170789136652616,1.0501917582301246,0.30932990083395456,-0.2805646945857861,-0.006471765711708333
920.0,0.38780838496851455,-0.3926287489631919,0.9804829340848792,0.28041543055036183,-0.28880508266821614,0.008910000827244705
940.0,0.3023182684605378,-0.4927279432112323,0.9644002797464645,0.16833280193658037,-0.33277997210245364,0.004904396295141707
960.0,0.1359302330477442,-0.5116984591709817,0.9998178928711523,0.12509670214935997,-0.3633710024897236,0.00037305711225625593
980.0,0.06176474285728384,-0.557338274214928,1.03477196264844,0.03482435579210245,-0.4063061604088011,0.01706321755769016
1000.0,-0.04338253924937657,-0.584802365970566,0.9919301398926271,-0.03774274174881866,-0.40465010113399097,0.0011870534708501633
1020.0,-0.17382518150080684,-0.5747495017092674,1.0335072117835973,-0.11958552810944867,-0.3796050410187408,-0.006393701238399146
1040.0,-0.29356328608756505,-0.5470749049190698,1.014351519438925,-0.16887460629555182,-0.3447112911059906,-0.008551288876899057
1060.0,-0.3777173717822571,-0.45221907034515035,0.9868837986027548,-0.2641429035964807,-0.3130761375804605,-0.012126677265657209
1080.0,-0.3719669902399612,-0.2933761603206755,1.0282545044702356,-0.29471847936023055,-0.2717660006084535,0.0125862896799366
1100.0,-0.5636369649123575,-0.2600098437621614,0.9844320923073292,-0.35673823736655985,-0.21391307297298187,0.010144963342599733
1120.0,-0.5553603669597666,-0.28914884150687764,0.9690893634321901,-0.40654239524612307,-0.13583522310334256,0.003980096531686963
1140.0,-0.6083064119834962,-0.010381180892883451,1.0322301514631869,-0.4164497452559147,-0.06922251874416101,-0.009540441221524948
1160.0,-0.579230072798872,0.027199100850353538,0.9907620362331014,-0.4124075947895243,0.023492982505255947,-0.0018213930011407608
1180.0,-0.5640453002072326,0.14682186809303482,0.9287621646708211,-0.3927258013406272,0.10972639583265457,0.010411774755947052
1200.0,-0.5533793989516945,0.22323781838392642,1.029633666148639,-0.35727934293033553,0.17924613533021627,0.001874214241569513
1220.0,-0.4724768504381256,0.3291898896447233,0.9875952294780377,-0.34080194505253464,0.2572692764194509,0.005425756486453668
1240.0,-0.3460641515634175,0.39333690853671455,0.9961402373910915,-0.27113401474953386,0.2848979709986171,0.010356055430767477
1260.0,-0.26028436913023967,0.4506497205183601,1.039498606899576,-0.22202635148645444,0.33232627629915185,0.0005771488306073044
1280.0,-0.23039562658950957,0.5591062480010663,1.0043195096303286,-0.15136601217282067,0.37197082881967597,-0.010660110598332303
1300.0,-0.11607894761641299,0.4984937546282004,1.0141263756155388,-0.08072385783206731,0.38457990081859705,0.007306205784201194
1320.0,-0.09756908112539976,0.6904179547269234,0.9939468136746165,0.023897456929969283,0.41114733635494605,-0.0018620512658525028
1340.0,0.13559466657250624,0.519048377380858,1.031460085334018,0.07169246102491972,0.38173514041414885,-0.004091487226697267
1360.0,0.2253324463045225,0.558903613311094,1.0229956612848197,0.198389814179455,0.3670871225583584,0.00310520641490688
1380.0,0.34791101736515,0.43635059393025116,1.0268343706639091,0.20287191167732543,0.3448671152131345,0.0074917834812525674
1400.0,0.47137872366252886,0.43352811926527357,1.006837701794112,0.2870197887935979,0.3004485647258453,-0.00790010761675904
1420.0,0.48615532059886024,0.3486082165298857,1.0425545181943616,0.34471478614638384,0.24210192729400382,-0.009561396674297782
1440.0,0.440754368313681,0.19491768025417483,1.040892358543751,0.3581498053327011,0.18499313370016582,-0.0008876661715984533
1460.0,0.5259821044180429,0.19174571230428508,0.9545541868567893,0.41028521087479863,0.0837865982088457,-0.005806248975844316
1480.0,0.5682261012718341,0.07541736606539454,1.0402416789993574,0.37532980890896633,0.01585785371468544,-0.013034984295009067
1500.0,0.5664057405156611,0.03287691267657891,1.0082386886749155,0.38846480444853854,-0.028897362864063192,-0.002912756375587217
1520.0,0.6519677869449265,-0.2060123567596385,0.9950060231466765,0.3841423757018645,-0.13151593145255108,0.002744005384612927
1540.0,0.47640762604922204,-0.3296359318425633,0.9859006625431633,0.35441390070987,-0.2112069214569704,0.014472438551328211
1560.0,0.4575250878499726,-0.4204905327998629,1.0197639962717255,0.3046024130431839,-0.23734153579428988,0.00658745895430222
1580.0,0.3780857719813521,-0.5107010585380161,1.0280692794380686,0.2683284801138647,-0.3040409564088438,-0.00987561869635448
1600.0,0.2604728936501744,-0.4990193242055111,0.9678452968427393,0.22823164028870924,-0.34587100574931207,0.00905701806706782
1620.0,0.09890620044620131,-0.6674786062898328,1.0059672708128045,0.14255211202971277,-0.38689720651736015,-0.0035391839881188858
1640.0,0.15425152023532696,-0.43361760900045665,1.066583629106424,0.08306345153570566,-0.36854284981815166,-0.001134332234985234
1660.0,-0.11554013635288174,-0.6794306358494063,0.9839756171022789,-0.016069806114381524,-0.3916401857592748,0.005600788633193841
1680.0,-0.12971372081431734,-0.5010992419387782,1.0249661509066657,-0.10625251555690975,-0.39453162564277444,0.001781520192799407
1700.0,-0.20679000591325292,-0.4989880497952152,1.0107454047261535,-0.1771631112744983,-0.3419097746619436,-0.0030990263353283315
1720.0,-0.24865122534510886,-0.49035354675561393,1.0366662928476396,-0.21945023610233524,-0.2960451667310622,-0.0064327876549599185
1740.0,-0.45498235286382915,-0.38356762630903296,1.0072122055720978,-0.31812453935031154,-0.2637370295567152,0.006715347276666033
1760.0,-0.5240771444976482,-0.25533762891715756,0.9880782584157227,-0.34116316074060204,-0.19467121209874658,0.00836387385530317
1780.0,-0.5004465701752921,-0.21936119309255844,0.9651826568938284,-0.4130940863397915,-0.14263310095045761,-0.012330711111054866
1800.0,-0.5994156292346607,-0.05886701357390137,0.9919757163445196,-0.40570441258444423,-0.05547406476896394,-0.010574147153994438
1820.0,-0.5759072169506708,0.10270635190555241,0.9926558552558161,-0.42142025925660853,0.039316904250194976,-0.0018288270266398484
1840.0,-0.6120091750682989,0.14321063594146266,1.0269017563169804,-0.41308381439815717,0.12853855826929844,-0.004086955753961136
1860.0,-0.5005259920600693,0.2517317307631837,0.9836849213605505,-0.36005688836663363,0.17874557291205026,-0.00642703006330579
1880.0,-0.5542701912557564,0.34718219299810643,0.990611275431829,-0.32601533333896804,0.20392468721948792,-0.015521519774593255
1900.0,-0.431938546885021,0.5265286707561481,0.9582942730732633,-0.24766950018828188,0.2781724607966266,0.0019816925095540775
1920.0,-0.345285496488569,0.5197268892929504,1.0146565831396528,-0.1962003007550506,0.3201739168909511,0.000847877983065448
1940.0,-0.16460762813565283,0.6051099048700104,1.0004385355114673,-0.14036306964035639,0.3833903429055871,0.01657294414421421
1960.0,-0.07455963278759063,0.6789265921265604,1.0419908859717852,-0.10715300077155485,0.4150021431434241,-0.003551179713581737
1980.0,0.008285333221117526,0.6370932415348058,0.9731989643226789,0.02171576649924551,0.38407625126947453,0.02765961614596528
