timestamp,ax,ay,az,gx,gy,gz
0.0,0.07614939803890351,0.5866821094180419,1.018862609470777,0.003143004472825143,0.4056724547789173,-0.00036260283528613785
20.0,0.1449293494909622,0.5769019172950969,0.9873143154622163,0.03914092156412434,0.3940590620241625,0.016106036314805394
40.0,0.24754331941199015,0.5476643277664197,1.0052425817865385,0.1922512770730099,0.3365712687821086,0.011486051536600874
60.0,0.2743943971127854,0.5148171354313377,0.9710743477666225,0.25754275633622503,0.34639840685902906,0.0014053986344958484
80.0,0.5226843824898885,0.31862087030989283,0.9882790932489045,0.3220269664198391,0.31190474224718157,-0.011044829167176837
100.0,0.4938465990330252,0.3009022063633831,0.9736605493320438,0.33656667129089646,0.25771626783947477,-0.006617134357246741
120.0,0.558069531300896,0.2266521216641973,0.9737671060079863,0.35088834300936467,0.17990037281775267,-0.007030576885558113
140.0,0.5460781767357696,0.19423260311046453,1.0214235528791538,0.3734893608588969,0.08580796061428102,-0.009589088135770078
160.0,0.5365921637098972,0.028540238594391396,1.0249633302584478,0.38357869759447977,-0.027280791235227884,-0.011545713269171502
180.0,0.529503035124048,-0.0036546381632843877,1.0050673480810515,0.3885055486173718,-0.044327274511441576,0.007883709043611407
200.0,0.5983204140464098,-0.26050909481084483,0.9459694888713379,0.34570839001627546,-0.11468892011309173,0.004362792468659729
220.0,0.5649014273253175,-0.3729525696264525,0.9818766050225467,0.3616684836145195,-0.1985596813775882,0.0002711005436941255
240.0,0.4738938652481985,-0.3139792432523691,1.0257792098472909,0.3402088996799155,-0.2512946206263777,0.0031045691778719053
260.0,0.32365062848706005,-0.48527405207408003,0.972880103459191,0.24104245830931845,-0.349413750966482,-0.011197864231639267
280.0,0.297341657422853,-0.5103284137455831,0.9577754513056007,0.17404836785840033,-0.36040203063570075,-0.0036439385757500863
300.0,0.16859739515968608,-0.45527909261445104,1.01872543484047,0.11757078212741841,-0.3937534077953147,-0.0025100896369850147
320.0,-0.0112856726579448,-0.5835325222772891,0.988481975641576,0.021589264131095805,-0.39368265853844275,0.005113721669056471
340.0,-9.782230396983282e-05,-0.5351959303280187,0.9683623508369877,-0.04616709532854199,-0.3588980004769455,-0.010094255594365028
360.0,-0.28886534080333937,-0.619360766100951,0.9944754510176557,-0.13292651451065315,-0.34740915750727,0.012285980114857646
380.0,-0.33889125705064155,-0.47993038001469834,1.0168990771630013,-0.2109568369663409,-0.3870000204731121,0.01610300313853602
400.0,-0.4319448098356146,-0.42119897556105085,0.963285688596377,-0.25322939430670577,-0.30653954044413106,-0.017056914025547317
420.0,-0.506849870810592,-0.48203645906219067,0.9818288621536503,-0.3012557695659639,-0.24642199689452496,-0.007807749573415822
440.0,-0.5396987764922114,-0.2761213668044585,0.9613451364055222,-0.34961927970134155,-0.20457917310449597,0.004844896065604587
460.0,-0.5407257764109149,-0.1589607362492083,0.9972193633592745,-0.3647439722378413,-0.10334489204216865,0.008741501007745891
480.0,-0.5819762949060052,-0.083366176520441,0.9678764676983651,-0.38960597352670406,-0.0715289401883456,-0.0011910212421340609
500.0,-0.5383575946333345,-0.008893573245854377,0.9624277542240056,-0.3829600774951136,0.0007193613055412641,0.0007124468130427116
520.0,-0.5971302858829066,0.08740395020939176,0.9709804404012945,-0.36482111092043573,0.11881653385907331,-0.0012749556280519426
540.0,-0.5016204026760585,0.28670433985314075,1.0103935820634895,-0.39322590791565887,0.17220317340838637,0.003337317307707653
560.0,-0.42804488364173154,0.2768787666771749,0.9721143095461576,-0.362714561373912,0.248360883417056,-0.011415072140467686
580.0,-0.4626965660610011,0.458828141060952,1.011047473162597,-0.2496535336265943,0.2762811995222862,0.0009351160350003355
600.0,-0.3264145929466429,0.5230552608866654,0.9665533997837124,-0.22612276845089813,0.3307296501989363,-0.0136419597695846
620.0,-0.2567121763548999,0.5938564677515809,0.9901884068618471,-0.15348304971548338,0.3527691364813432,0.00436736504789798
640.0,-0.04130861998482947,0.5590840999554947,1.008448150945583,-0.09429585811564573,0.36699088033575133,-0.009308991254368905
660.0,-0.040433621418832735,0.6082371787315842,1.026119913485955,0.004165073962437981,0.37589389057210354,-0.009627803452533034
680.0,0.013216934590411511,0.6282708902145125,0.9926929303974588,0.06863127031262543,0.386177521738952,-0.011987824738340097
700.0,0.2798618504489512,0.5667471083328531,1.0360588241647306,0.12733081644104788,0.30961067152413585,0.00845548336963709
720.0,0.2546322590608208,0.5912791636720629,0.9319257813431009,0.20831164534037838,0.33953516907263165,-0.0006675818650156885
740.0,0.4723861405391486,0.4106207974621917,1.042137995931621,0.2796442611049478,0.2819607239819812,0.028864702465953514
760.0,0.5243065676513936,0.35620600360159455,1.0072632778575898,0.31656272102250427,0.2400557914627811,-0.010411264138460287
780.0,0.657715307494442,0.22676461975537554,0.9580505529792459,0.3771274046275422,0.13428268405841623,0.0010759926575470717
800.0,0.4623601805901679,0.20529413031843735,0.9768449430405077,0.3547957536233617,0.10812676358180179,0.00550776648580521
820.0,0.503295800162094,0.03751586353127588,0.9839500770434673,0.3797052983245543,0.05954209756720999,-0.009721517074797143
840.0,0.6320315248027595,-0.10275695154438855,0.9922663623126026,0.3642356502469503,-0.07034647869748548,0.013765224356380685
860.0,0.5660785685329325,-0.1934134530223803,1.0362555472304644,0.4005416711392853,-0.13187490102138835,-0.02419774645315924
880.0,0.4771130121514587,-0.2780258838488909,1.003910484110947,0.34544465990150974,-0.22925328350879334,-0.003298750511820595
900.0,0.44981936618959584,-0.40032879852670605,0.9981214432525355,0.2793551901003325,-0.26268938859416374,0.005012814369447003
920.0,0.33224074783094915,-0.41722996904111465,1.0174981360205773,0.22106047770169351,-0.3275471349845456,-0.0017261272044431723
940.0,0.33464546732868206,-0.46976354777114515,1.008395057203081,0.20174572502113894,-0.35470744152741435,0.0026468921066361566
960.0,0.20467437439773153,-0.5706770156851235,0.9929690054493416,0.08008827142937922,-0.4038288913997732,-0.012757718694100747
980.0,0.06895539662441821,-0.4991394618718767,0.9963897789895455,0.03174807946398342,-0.3535710046215405,-0.007624851423304696
1000.0,-0.002302550596206869,-0.6095946032341156,0.9793094720804545,-0.062141771439838386,-0.37646726711313416,-0.0020766585547787393
1020.0,-0.2150455179880959,-0.6635495615967945,1.014965777704836,-0.1369936264588555,-0.38951144639793456,0.019413362510185845
1040.0,-0.33189459606504823,-0.5940669908700443,0.9858739810401057,-0.19878829040346124,-0.34583428673408917,0.006753065709499634
1060.0,-0.44222055208263017,-0.49401375484213755,1.011556828335074,-0.25400656605230465,-0.29122434347335535,0.013011205400051844
1080.0,-0.49303872336451326,-0.341995178992289,0.9885846296746823,-0.32153832931436965,-0.2909986651293933,-0.006605893557310321
1100.0,-0.5649344241452834,-0.2646576184423725,1.0864447639622452,-0.3617609325586223,-0.24229359239115877,-0.0003478204810213283
1120.0,-0.6126538376231451,-0.15906466745452705,1.0139484434920802,-0.3889352645366909,-0.13813643925121485,0.01571207252657946
1140.0,-0.6337518114829097,-0.12128776005113415,0.9661039464854785,-0.4153221391891228,-0.02881578819549817,-0.0074329266623529774
1160.0,-0.6176574850306652,-0.05508873472344798,0.9908455144200147,-0.3809363101695975,0.008811129344708683,0.005685178675043439
1180.0,-0.6568511522635554,0.09225643667636432,0.9584692569528875,-0.37573309156247503,0.10628248338165033,-0.009380339693762584
1200.0,-0.5469438323232905,0.2525803089209409,1.0299360778348436,-0.3767190726930692,0.1497602096101959,0.031744560229423006
1220.0,-0.40911716639839557,0.315658157954687,1.0108353067428701,-0.33750369524810697,0.22532914582191776,0.007379105737091424
1240.0,-0.3908708468222616,0.42233031172105445,0.9862033918732401,-0.25318237876335753,0.283266444048508,0.01870774707393297
1260.0,-0.24839902158435678,0.5441661592342374,0.9820260957109874,-0.19380218508700203,0.3532235779791865,0.016644099850298445
1280.0,-0.1498460821344037,0.5433045539688068,0.9622717930414094,-0.17473308030448542,0.3346228266163588,0.010518896439943873
1300.0,-0.1351220179657174,0.5182292842355265,0.9724490016988494,-0.09367872888325207,0.4078353340734469,0.018025835782568306
1320.0,-0.038145851791061336,0.6527036019920265,1.015800905672271,0.0010972981246244792,0.373777176119579,-0.019896961816803945
1340.0,0.15708973647769492,0.4790786862508524,0.9544625204583667,0.10136090657100029,0.40858739775400127,-0.009755905735196545
1360.0,0.2505551175895359,0.5926143042581669,1.0451825589011106,0.1589763413396236,0.36076049151750933,0.009016907493066544
1380.0,0.3726880405405392,0.5224822105049576,1.046042879874562,0.18241886401806182,0.34856907023270056,0.003351075999004401
1400.0,0.40476824568894887,0.49594027433121607,0.9553516550021632,0.25950378432416105,0.278743942630338,0.00715020174476643
1420.0,0.5065489946911507,0.2977969891426112,1.0209626995967063,0.3123938645088682,0.24300828352983808,0.012813984151260331
1440.0,0.5611962132455589,0.22880101085970184,1.0257613514601893,0.33098009388866423,0.18479994177070963,0.014179082394014005
1460.0,0.5912191744362452,0.10234990373292753,1.0726996171630836,0.4185236329901692,0.12952815025814468,-0.003147892755616544
1480.0,0.6758804966415433,-0.013044694880624198,0.956921287905768,0.4265783583668721,-0.006694096477874098,0.014981540093977768
1500.0,0.5336234721997739,-0.07271640162511928,1.0250888437510708,0.39812466996616874,-0.05737777647594834,-0.016534517957228288
1520.0,0.48724537865834,-0.22134785182357,0.9773923652516457,0.37522768950804397,-0.12812704917460446,0.007982837741806576
1540.0,0.48718069624651095,-0.33112564109630194,0.9907230793133789,0.32358078509685395,-0.2214891748573405,0.002214962383209386
1560.0,0.47310078095339464,-0.3915392105108237,0.9844880018965321,0.3031636195727456,-0.2501479024017576,-0.003891747098834985
1580.0,0.42801911481135513,-0.4396555139140964,1.0075348091636989,0.2588666630165112,-0.29936938399892665,-0.006335314346076535
1600.0,0.25342584569224114,-0.44650458852726643,1.029083244426316,0.16707270274052202,-0.37538191826632206,-0.008937231020728707
1620.0,0.2176365185877729,-0.5680465281053148,1.0420644422653962,0.09953104087003087,-0.38177979639927656,-0.002591295142492949
1640.0,0.002534450659402082,-0.6098415104401573,0.9025788763480295,0.010987574805010808,-0.42057452385351185,0.002022190410970199
1660.0,-0.10382174816697404,-0.7189126328990543,1.017907242695438,-0.05144498186874383,-0.40936349026444735,0.01099440076136217
1680.0,-0.25938689946420906,-0.6521069245223949,0.9803502212044473,-0.08769927199547585,-0.38720751550530513,-0.002407192448010206
1700.0,-0.24732749000034762,-0.46023790797466435,0.9820627942879637,-0.20277102701614505,-0.3895883427121067,-0.009530455164752701
1720.0,-0.35827348362495687,-0.503393402410025,1.0035853958582504,-0.2554540361053606,-0.3226870933012491,-0.024434146363533717
1740.0,-0.5075521865610327,-0.4460365595709351,0.993963193820086,-0.3185734504587999,-0.2619361347571418,-0.0008045718443845833
1760.0,-0.511263533004281,-0.22956981792390774,0.980727316012672,-0.3280218222904145,-0.17816300666983823,-0.009812274558976224
1780.0,-0.5878289427644393,-0.22167456420720166,0.9430238626973874,-0.3782400207670956,-0.1255549433498034,0.004274049618041281
1800.0,-0.5936337250804,-0.13348402348213656,1.015171475940291,-0.3726402825129322,-0.04898996279149813,0.0029673541575866496
1820.0,-0.5139308191204367,0.05533389098918567,0.9992021269617158,-0.4033071673676351,0.006716375864762621,0.012546314003493044
1840.0,-0.5433158873788658,0.12288609219649803,1.040395494899144,-0.3534347171252179,0.1102464610938623,0.012174268017684387
1860.0,-0.5586294850556852,0.22477865485054074,0.9652782585926529,-0.36913307506576154,0.15520352257700493,-0.00881800907323303
1880.0,-0.5292649131373309,0.34779768076391177,1.03154250086823,-0.3219421749556381,0.252049143517762,-0.014809344224683258
1900.0,-0.46084940490960913,0.44501325238286776,1.0240312641750156,-0.2936566250347326,0.30396016127831726,0.009871735764529058
1920.0,-0.330003159135511,0.5449453337521303,1.0329941529246827,-0.1919217093099703,0.3716659189487671,0.002256001974866001
1940.0,-0.15586184869299247,0.5764119591033937,0.993230386065617,-0.13915579255562022,0.38294831996610285,0.0011180994701569663
1960.0,-0.13243030496523195,0.6310180743744338,1.019522051469049,-0.08917194986034511,0.37218580149457303,-0.012088626262885685
1980.0,-0.0428501928381106,0.6045635677337623,0.9948309026152556,0.012022245014776311,0.3830280194116397,0.011214258112754092
