timestamp,ax,ay,az,gx,gy,gz
0.0,0.007894284136957228,0.5804302126627731,1.0462111192384744,-0.013865962977618699,0.4232401198278777,0.00806947836008005
20.0,0.04328694365876072,0.7021590819522086,0.999730492745426,0.0709668366834186,0.3700122003585978,-0.010671984062459939
40.0,0.22180451939653642,0.5091200164950314,1.0124885904181031,0.15940338650792504,0.3686058278037637,0.010294089507676447
60.0,0.2720445601044678,0.5365857348766135,1.0216937380724216,0.19122359437611572,0.34655716190861235,0.009698944409865242
80.0,0.49582535195878213,0.4593652622759545,0.9902775757711568,0.26797674098893426,0.2632228827897259,0.004973832717678518
100.0,0.5421938589053379,0.3497451948637856,1.004755522440072,0.36367294858168586,0.21880378467880116,0.0167514888697718
120.0,0.48184984273385345,0.15331407709893524,1.011057645177209,0.39069164885792146,0.16364299807756688,-0.01599990822591287
140.0,0.6020322387281407,0.2096988577894656,1.032002727174894,0.3778675790999792,0.11197760830301262,0.006777905102348775
160.0,0.6178090573545842,0.09018184111531166,0.9857409320018465,0.41580186815162834,0.05181939136431464,-0.016270397776306633
180.0,0.6128978838897601,-0.09555161190638636,1.0518190154360778,0.3987914257397946,-0.049114913146364916,-0.010167963907388304
200.0,0.5301928411608569,-0.1890295613182141,1.0078929543755506,0.37917572622958756,-0.14798596264045988,-0.010725448519194493
220.0,0.5700346281463162,-0.28675880800088505,0.9845942310256353,0.33321737902646903,-0.25442259980391335,0.007166872713572117
240.0,0.47001443632277695,-0.3528282654174801,1.022287368119039,0.3108280524381259,-0.2416848400996629,0.006822525102804812
260.0,0.37016035478893955,-0.47630549936796446,1.0266146549125714,0.2501542470070343,-0.33970891279489934,-0.005390048266409077
280.0,0.3988079199117025,-0.5843071744510336,0.9786980173580657,0.17357930452629466,-0.3447875001900938,0.008291470818961777
300.0,0.18810690895757698,-0.5436436682386176,0.9974699561618547,0.0800773009592951,-0.38146053499538257,-0.0075209210002818525
320.0,0.045626372227803,-0.5819682954916926,1.0719855607282722,0.03781385334624691,-0.3895805658285744,-0.00375000986828769
340.0,-0.028685948758484382,-0.6204553958729639,0.94847515644949,-0.04888978887847711,-0.4057780974296623,0.006253476021492414
360.0,-0.20942743080348714,-0.5813293150194005,0.9912217567700027,-0.1418963421152433,-0.36065822228809685,0.008598446662858018
380.0,-0.3144886261876704,-0.5664886610840287,1.023997004723344,-0.18160448032411627,-0.35047572991402104,0.0011272718232640143
400.0,-0.3963124671267586,-0.44507225217026986,0.9946449578328677,-0.26025395106374904,-0.33619596841717203,-0.0025180211301788053
420.0,-0.4022495704379814,-0.369711299768653,1.0337089956007746,-0.2960120680362431,-0.26946489505084614,-0.005843580323699621
440.0,-0.4543042578506823,-0.40685648861033297,1.0250978598488767,-0.3928767342433176,-0.19207643003410158,-0.013454444613780115
460.0,-0.5365983984944906,-0.25195685637925247,0.9265156886253504,-0.344572531781772,-0.10926301438829834,-0.0027892128651551464
480.0,-0.6081775520606331,-0.10860271856299517,1.0497398391574264,-0.4086868499382155,-0.05222603474277776,-0.001783691881870117
500.0,-0.6802689806766825,0.073469674698803,1.0038260556151934,-0.3861042099534696,-0.00977364872178781,0.000884104242612287
520.0,-0.49448098787226724,0.09067800282420949,1.0175957881670568,-0.39104937400377066,0.09681828997379414,0.022714175877837132
540.0,-0.5448391520284198,0.2584443387182881,1.0341635415147339,-0.3877129244912916,0.1673252184045833,0.013569780974087729
560.0,-0.448488035212343,0.4320328666132446,0.9731233634475233,-0.31466580729205046,0.20736207544470667,0.0010173556240642633
580.0,-0.43064117411031255,0.521737335110143,1.0918359502821469,-0.25233192987236397,0.28303660060148683,0.006660482036930414
600.0,-0.3529359861103491,0.5044313579410648,0.9804008657871532,-0.17158064984163932,0.36120954817921963,0.004109554687109756
620.0,-0.2368322791155454,0.5498329490864081,1.0367759927978217,-0.16683317659677252,0.36850762971665507,0.004268487425209618
640.0,-0.13144509977805555,0.5843620895318097,0.9810162338894683,-0.11547473596471591,0.42026653126549457,-0.0065578273395704625
660.0,-0.05674972837193515,0.6310241630510776,1.0247632079305777,0.011821999488651092,0.3814410658964814,-0.0006899927785387422
680.0,0.1618040935188204,0.6335957870163988,1.0019826165609442,0.06862526135321781,0.4270127229016119,-0.00630814701943513
700.0,0.22917889331329808,0.5578068662065989,0.9947779704286556,0.13730182286868972,0.375014261831159,-0.003310845336801295
720.0,0.35903340238876646,0.5318839439442513,0.9541919398070008,0.20164268254411113,0.36280185043478097,-0.001559374195666457
740.0,0.5192480771220809,0.3771117003957262,1.0381214410960231,0.28470315092359927,0.28971545706723933,-0.030495011244964215
760.0,0.5307329705675001,0.19824173349426627,1.0466122374046531,0.31403807327120714,0.22859861767723477,-0.006201652526556448
780.0,0.5636714712279086,0.27812738059598086,0.9780534489314194,0.3552641184328278,0.17966107429791944,-0.0009735518263717984
800.0,0.648333796067569,0.11639441096422992,0.9595953912158475,0.398601199692086,0.08286460877378007,-0.035148794414604966
820.0,0.5695892468316829,0.09283866313206143,0.986385382267639,0.3553667468602915,0.013569291483093476,0.020782399165918616
840.0,0.545844460384094,-0.056253861065046096,0.9938041770189692,0.4119203170689931,-0.06897166013637501,0.001276568182576148
860.0,0.5288630353299677,-0.1418529232413954,0.9846514989193935,0.38181230800846233,-0.11602383053141613,-0.008575844328095607
880.0,0.5287038903319498,-0.3284239372515939,0.9765784498950911,0.4020149750468922,-0.18160335729665344,-0.0018348141995844379
900.0,0.5250884234043496,-0.41562956203956913,1.0009946045366973,0.30877314937364625,-0.28958397958029525,0.010954749821118819
920.0,0.3539009740149354,-0.44515319762453265,1.0739219522558818,0.24573937708520863,-0.2901743550182262,0.0015236345070227422
940.0,0.33735161731047314,-0.4671439765749736,1.0130404462351632,0.1455625397015331,-0.34319940032826035,0.0029303060514830237
960.0,0.06842331809864208,-0.5515354403579108,0.990172987612141,0.1253063845753165,-0.37163496078580727,-0.008924018055882972
980.0,0.029199888752349478,-0.5521746735451146,0.9701971618487256,0.03465846674143034,-0.41272507021345667,0.0032531638680235496
1000.0,0.008518657236126187,-0.5485250819714552,0.9280047008269151,-0.06048076701766396,-0.41445748344956496,-0.013586264085838675
1020.0,-0.08885718350479635,-0.6837569090116287,1.00646557709847,-0.07372103997380368,-0.396670170503644,0.014792638882502826
1040.0,-0.3291541259403038,-0.5340854136210729,0.9707673835034899,-0.169590136674526,-0.3223910731466903,0.014761407859872441
1060.0,-0.4085980229573887,-0.42064412431896103,0.9834386904946437,-0.24819821637284095,-0.3371934471875192,0.01111253198392696
1080.0,-0.487900418801881,-0.45646811074853383,0.9895789395053118,-0.2863176953048593,-0.2788907102973839,-0.006974662247362274
1100.0,-0.5180175933491079,-0.3237824499031682,0.981443144623175,-0.35447621384219435,-0.2181796867026268,0.002641731385453174
1120.0,-0.5260154635263833,-0.1462243796873899,0.9971265031364488,-0.36134494684037227,-0.10910734138253622,0.01924832353483019
1140.0,-0.6242500557784659,-0.08934412294837499,0.9731487258988791,-0.37305550192443393,-0.07078501151478443,-0.0002427275196896999
1160.0,-0.6340368036295599,-0.012723120914668627,0.9588246857745958,-0.3803382546613657,-0.00511946477385258,-0.00934351188004138
1180.0,-0.6228303431581249,0.08983183265708634,1.0117525021158602,-0.40490443788129415,0.07313957317163776,0.010610412569137457
1200.0,-0.5760138226000863,0.20951538541474785,0.9799997883497519,-0.32790501697711466,0.16719649430399236,-0.003125440270724511
1220.0,-0.4091418587622186,0.43937086338230674,1.0213490701426573,-0.32251885899626176,0.24668464238374163,0.003967123673281726
1240.0,-0.34479479561846793,0.45929346879151484,0.9937113723477585,-0.27454742841710567,0.27086240935266037,0.013134299422743747
1260.0,-0.2945119056908435,0.4904024533316462,1.0161517605425454,-0.21996871591019856,0.3383874695609489,0.0041774995118143065
1280.0,-0.20813053764256262,0.5948197392932427,1.016634725090193,-0.12402677844898145,0.39618767149804607,9.03600745641084e-05
1300.0,-0.1346956738229761,0.5505483859337437,1.0246562738029672,-0.06432705635521702,0.3950016366878242,-0.000825800011602897
1320.0,0.0578552162615571,0.567844865998997,0.9278466661336444,-0.006819731647397085,0.398297108832216,-0.01018656144865213
1340.0,0.11818611050840627,0.6765037469970572,1.0155046236856056,0.08750138256341275,0.3668807319419605,-0.015717049702104385
1360.0,0.2076895368442187,0.5455807104480862,0.9867174332268721,0.13121079020966983,0.37127269172930805,-0.00737470707152322
1380.0,0.31058402551379555,0.5097914381653033,1.0406310919372441,0.1863566501578292,0.3363786835873066,0.0015178179128429222
1400.0,0.4811267998902228,0.47750521246474253,1.0068962508613262,0.3149033674663126,0.3156145859423241,-0.005599763709207842
1420.0,0.5650253055289156,0.37416062061845234,0.9949408823695401,0.35899481391564425,0.2210744989561324,-0.0007097922923591625
1440.0,0.5377758269175739,0.29460985271184514,1.0308455740634423,0.37725325769869444,0.14524199496488943,0.010455165185786382
1460.0,0.5543460129078814,0.1297775630857984,1.005089540066454,0.35337974354756047,0.1232127813885104,0.011386605475267294
1480.0,0.7464396319750165,0.01895621047108651,0.9968797080266015,0.40870782582477505,0.0035112740671266116,-0.005669153231467021
1500.0,0.6581788459591423,-0.10672246362432364,1.021277443159085,0.40713841555270236,-0.08099760144466066,-0.003498071014630817
1520.0,0.6212267524666335,-0.13316870600539946,0.9990745465224283,0.4104843940557706,-0.12889604650151237,-0.003652524865752381
1540.0,0.5924422107412008,-0.137562375066681,1.0289791936449952,0.3629488172448298,-0.24838221959374535,-0.005543538710871401
1560.0,0.48152433232587727,-0.37511178044244264,1.0174122165839043,0.29230970515378574,-0.25892034089663996,0.003137657566620709
1580.0,0.3051165936592179,-0.46851367979158964,1.002125155023091,0.24818450889593066,-0.2863637549665008,-0.007367434928170434
1600.0,0.24533833063372046,-0.6674372037994156,1.0495302860223752,0.1967497958128766,-0.3742924843935085,0.0219267572496375
1620.0,0.13171212823516745,-0.5828665511696894,1.0242148369446258,0.16242643946501426,-0.3784826230368023,0.002351051284061
1640.0,0.13613054862473095,-0.6628186755612344,0.9894464499484229,0.05445559039224651,-0.40985031615716266,0.0019052310264517241
1660.0,0.06092250097324711,-0.6444803466810329,0.9990207667063468,-0.05512935862446877,-0.37320583934824636,-0.0008615269692192325
1680.0,-0.16475681447383533,-0.45928953346837165,0.9530791123271937,-0.12127777671969006,-0.37955100488455973,-0.014926904936928323
1700.0,-0.34831865165593034,-0.5790436487241145,0.9875728593390452,-0.2132440093391693,-0.342004209043228,-0.004136297666037689
1720.0,-0.47437970571265303,-0.507653258287399,1.0329842439027639,-0.23614206797154944,-0.3050253563303914,0.004318011219346055
1740.0,-0.4357185274944115,-0.4624067196508455,0.9726962690788644,-0.3147935338447478,-0.23135672176352312,0.004078260738670363
1760.0,-0.5778478650259317,-0.28210762435004866,0.9775822179441683,-0.3256446730101024,-0.20612587758558953,0.001184549082229903
1780.0,-0.527179964928066,-0.2694269361240342,1.043483068467312,-0.36106813064819676,-0.14189967969143227,-0.0001812538184067179
1800.0,-0.5877755468748693,-0.08675567865400176,0.9831350437872214,-0.3732164475461754,-0.041699714529778734,-0.0012757528611931147
1820.0,-0.6533065193161776,0.07988950688498614,0.9993789640980374,-0.3935914930471559,0.028728255913141338,-0.007700775895597708
1840.0,-0.5225355667328536,0.2239313201916639,1.0080581737470702,-0.3295856688453903,0.07959421044700737,0.0066766607603709165
1860.0,-0.5976937943824737,0.24458410230671904,0.9627701925137758,-0.3621759280093711,0.16752763025706754,-0.011817018097893409
1880.0,-0.5080857985513881,0.38781177686055424,1.0364806820308665,-0.32642048809941004,0.20864489602642716,0.013010239826393636
1900.0,-0.4693150299674254,0.43007159184179267,0.9607878400419485,-0.23937564225788138,0.2979316968278325,-0.008780591849408236
1920.0,-0.2582661411432557,0.47961938069007176,0.9786086116343757,-0.18528963135873683,0.33695605146593066,-0.006902853556929651
1940.0,-0.22658900654286465,0.489191895907656,1.0820454071896584,-0.18539229306589067,0.38643297195752063,0.016672216965562724
1960.0,-0.08845278440327704,0.5847306680735109,0.9597210325718765,-0.05744589540136907,0.4113548964502521,-0.011701781557186309
1980.0,0.004419120298384091,0.6766465603942835,0.9824868255545663,0.01079793645071618,0.40955226903691266,-0.006736636004581237
