timestamp,ax,ay,az,gx,gy,gz
0.0,-0.04304331564543978,0.5793977090758557,1.0073119164019841,-0.0006735760349728113,0.3792139042071745,0.011343168506613164
20.0,0.1561004689111347,0.6567247599398388,0.985961141743365,0.052930170845388966,0.4020418507558635,-0.008733897817408137
40.0,0.1545171451729092,0.6109694562042763,1.016772438426771,0.14072923752348962,0.34481792371502495,-0.022227428786069085
60.0,0.37098232033810746,0.44188899834857176,0.9865949985294312,0.22006523513139303,0.37829101501576873,-0.015183374330535869
80.0,0.4591257794138068,0.42571227794992267,1.0446758028508532,0.27764612951531065,0.2916276758930578,0.0009355481704940218
100.0,0.49135342366873774,0.3703073324304963,0.9457860791309445,0.3230550351402395,0.24022257906103794,-0.0036747068714843185
120.0,0.5385754824078282,0.2738062371059941,0.9476339698228174,0.3909714233947905,0.13846801906713985,0.0041065891841207515
140.0,0.5156146763691062,0.1672296874482039,0.9917650368878456,0.36993011123985775,0.1151487451643094,0.007039790761355283
160.0,0.6059878690554843,0.1528472995557206,1.0289164262759152,0.3655667050646977,0.010351817621313117,0.006754923352967563
180.0,0.6158052411722471,-0.06349521293537194,0.9882143779493159,0.3928281966157284,-0.05462587671161066,-0.0021687019125365193
200.0,0.5366919232343599,-0.14673532762453678,1.0182539553265137,0.3373012697354975,-0.13021200184105447,-0.003655371576080006
220.0,0.4914699536115811,-0.3190589259531022,0.97933282925024,0.34107616981986383,-0.17767220328603875,-0.006506495430410597
240.0,0.383830823274203,-0.3636026378614758,0.9873611694808243,0.290702119879825,-0.24779947988818746,0.008062730013692338
260.0,0.3419227692918539,-0.4978856148801122,0.9788527642602975,0.2526685810253136,-0.2932728421296098,-0.0010860322084102624
280.0,0.2697090565362212,-0.5198936262412516,1.0254672938024125,0.2025057444919461,-0.3512436079942802,-0.0026173714760407813
300.0,0.19388042989011378,-0.545006136193362,1.0483488417695503,0.11894448533340483,-0.40427671157954503,-0.007133577378670148
320.0,0.1161239701447189,-0.5734230425965637,1.0221659027886534,0.041134153714283236,-0.40571391647480404,-0.006312629576298142
340.0,-0.11736829396210902,-0.5619400177152996,1.019536382483204,-0.03541583160075841,-0.36145998556136816,-0.00490851237526797
360.0,-0.22516880524058713,-0.5998098179254227,0.9832940809240323,-0.12377526136946665,-0.37860622799207816,0.0028210299268295264
380.0,-0.26040338470767793,-0.4134155699970184,1.0252648564247813,-0.16083117128603475,-0.33390584376353266,0.007696692457637328
400.0,-0.36550641723542254,-0.5027547861812306,0.97031968112718,-0.24197886260594625,-0.3025858018357098,-0.0008982888743435915
420.0,-0.4452335874816443,-0.37801773858253057,1.008396783786337,-0.260824234403549,-0.22679385740259744,-0.008420171344144727
440.0,-0.5443947250263947,-0.3043651626634312,1.0155926471810572,-0.3792713529138293,-0.2345411318529497,-0.004652216714210693
460.0,-0.5683131250743283,-0.14609448572733402,1.0417400124102902,-0.4051263277327701,-0.14138488919735298,-0.0029416195111366433
480.0,-0.5758009333380281,-0.11683155139560675,0.9942355688109394,-0.4176084921861524,-0.054319435323623225,-0.006270465166650223
500.0,-0.6400297286070967,0.04051949451714703,0.9973054808634055,-0.3828769359734931,0.029942692690497007,0.0026922987284561505
520.0,-0.630186999127644,0.18669320680507145,1.0559504605494685,-0.3901585402116046,0.10066803163002655,0.008177455914355187
540.0,-0.49668291090022304,0.17838585112239722,0.9624759452943342,-0.32798666831984524,0.18681574293064743,0.02201905687137546
560.0,-0.5269059842326673,0.3231643737975493,0.9773660205972569,-0.3569233926657901,0.2384717170792787,0.01203853634006953
580.0,-0.3675607889521082,0.43870362953403574,0.9841911830892981,-0.2708400116203175,0.30822270765072746,-0.005877644704352322
600.0,-0.29487409022909045,0.4551436106151697,0.9914507694294367,-0.22278400552025546,0.3339006461126442,0.013526031534164188
620.0,-0.21216472044079637,0.5345731192578265,0.9573875383383094,-0.16315067624726862,0.36515893661572296,0.0021745494958665353
640.0,-0.13640163472757438,0.614918942364618,0.932447399005512,-0.05234317412564241,0.3843061861444863,-0.002760650977084227
660.0,-0.06351690514833337,0.6387776237258951,1.0414068771168117,-0.0037144417155732926,0.38790751773359067,0.0157214729303204
680.0,0.16392655896710534,0.5845596704482323,1.0652644286033828,0.08068543415173633,0.3619991882391186,0.009035760107814277
700.0,0.2855026359921165,0.5132716230567634,1.020284401531802,0.1695730500403417,0.35363539481615464,0.0045151521890384036
720.0,0.25747663482059835,0.37517877544621003,0.9712401706020668,0.2534791024698555,0.3437288014432148,-0.005018750399362475
740.0,0.3713540625152335,0.44826573920890245,0.9805380377646514,0.25306537064700774,0.2633019052431988,0.00833821642250257
760.0,0.5672576612810527,0.4517870490794984,0.9974786690688691,0.34567605459075906,0.21040131625382158,0.015320495254838392
780.0,0.5574355198302359,0.27133756853672836,1.028333615040103,0.3663589145619064,0.1695577592930789,0.009930845612412656
800.0,0.45142395412621805,0.12661869543563312,0.9788498271449386,0.3883916417352364,0.07819029615832462,-0.002534667305457439
820.0,0.5890948544963945,0.03028684972503036,1.0380315295451412,0.44451227513533,0.008096424208067204,0.010267276521814724
840.0,0.6192459030013218,-0.12293052585714377,1.0080133124179442,0.3981487023547782,-0.07817018109910912,0.005560302113708414
860.0,0.5500401258926886,-0.23624676287562785,0.9805420602230982,0.3561371227598606,-0.1316000950751106,0.014756613521800351
880.0,0.5019793044993826,-0.2631185753080166,0.9580887740149172,0.35412993529373304,-0.18652558314713283,-0.0142765430858884
900.0,0.42584412055114496,-0.37029364145482524,0.9901038548525417,0.30487680018071783,-0.271149157163306,-0.013599970204668693
920.0,0.3722241035822205,-0.41754830283847333,0.9545508131886664,0.24090698758017298,-0.3230633606022883,0.017408908258850816
940.0,0.29980265620345625,-0.5350226323238654,0.9607433123097024,0.21392454333889346,-0.29038570584905166,-0.009842575757589308
960.0,0.19087764115064973,-0.48114182545287765,1.0117540697716891,0.14205429115804763,-0.3721186582899143,-0.00841385900040459
980.0,-0.009681062837751608,-0.5757405062442158,1.0401955175447148,-0.01555373349471139,-0.41435435633445594,0.011336104367127566
1000.0,-0.04836037637378991,-0.6280254915613999,1.0198193259479176,-0.06121916924830598,-0.38561808592767816,-0.00436301800136727
1020.0,-0.17110436819113814,-0.5741093320862943,0.9807832635354083,-0.09745904610089534,-0.3682466762517006,0.0034382412626912653
1040.0,-0.26232374902133565,-0.6249899104547753,0.9758652271264641,-0.19366346749728255,-0.34154667382399173,0.002642885704776643
1060.0,-0.3521254930790435,-0.45330112688576246,0.9929642516737117,-0.24030600432523264,-0.280977977000051,0.0036908810207330225
1080.0,-0.486773336143091,-0.4691589348383858,0.9696277038101547,-0.281845090381584,-0.2541544324630819,0.0018806363597860484
1100.0,-0.5702793923802876,-0.2942161365205711,0.9671788991658492,-0.3163913155644077,-0.19100139255259668,0.009152779039975798
1120.0,-0.46626402378365783,-0.1560155403657692,1.0547143705952768,-0.38621399865590816,-0.1297316713618613,0.0047197080532339385
1140.0,-0.6082048054963357,-0.16520686265433027,1.054415996157062,-0.3824844732758825,-0.030446568884425203,-0.01847524080781536
1160.0,-0.6109702656729159,-0.11082460270735736,0.9537314049270481,-0.4114915663345027,0.016178090526749397,-0.0030994103365256727
1180.0,-0.5592183618158892,0.14696275748389023,1.003311308204798,-0.4011233103494228,0.08800515622395706,0.010162890752482619
1200.0,-0.4905943452599684,0.22652137373129272,0.9754637262378627,-0.34918841765186165,0.15752763438124118,0.0028469095145381568
1220.0,-0.42883954807312463,0.40530442974620473,1.0032782534434206,-0.3343777063145449,0.21798878078758036,0.011692279735182824
1240.0,-0.44485282663195436,0.43247493429976497,0.9695084681114459,-0.2872837147471941,0.27071266468344624,0.018851748261711432
1260.0,-0.29476652814522725,0.474274799125805,0.9761493834433752,-0.2804171481309119,0.3276067069275291,-0.01022430792248783
1280.0,-0.2278867491357346,0.559151574537246,1.0560743272683664,-0.13758034681599668,0.3712749456476294,0.003758321826411378
1300.0,-0.10305256082206961,0.5441240337324206,1.0326177197480093,-0.046717564256655186,0.4082585786292119,-0.0011243816745650436
1320.0,0.001700277436583923,0.6133004391533259,1.0272136544096573,0.019789348978549642,0.4126968886096465,-0.01348822449118323
1340.0,0.1442145514954836,0.6049444666495067,1.0060948721685057,0.07970095213869526,0.39733966430646767,0.006049539512447344
1360.0,0.23966207955001134,0.5948754304431381,1.0225665854042725,0.14934638675514403,0.38787455150222766,0.0008188931437923021
1380.0,0.3002303620271119,0.4401077049951543,1.031546779524966,0.21539030882244578,0.3770422629323312,-0.007866224815315155
1400.0,0.34848198386486307,0.5123968782868811,0.9651890220721583,0.2675672184299307,0.27099498972431996,0.0034470446761077594
1420.0,0.5169738296578381,0.36406916852161153,1.0433465327913518,0.30618456045303344,0.20646242185258928,0.011703466591458208
1440.0,0.4726401035597331,0.20085928479623236,1.0446947519363237,0.36921234140462134,0.18171886022920686,0.0071356639318316374
1460.0,0.5362579496543033,0.13634357577104156,1.0102915566660502,0.3709034390791096,0.08783122702616152,0.010582834516677733
1480.0,0.6780419475734646,0.019978241745161343,1.00500848475068,0.3679256211189091,-0.01489682868348111,0.005376128415601698
1500.0,0.5649325520352622,-0.07388021256056254,1.0212404112954838,0.3736922486830114,-0.05153731699407109,0.005219727610003928
1520.0,0.6550834758843498,-0.26848034733391546,1.0178196115649274,0.37832735060175565,-0.11369851278706262,-0.0029221061713871487
1540.0,0.4892598724556444,-0.3236833888125459,0.9912834088588178,0.33859695519755934,-0.19135335921363933,-0.00028445713727858564
1560.0,0.4489632376642756,-0.4183159276221456,0.9771714863412198,0.32958759889240963,-0.2769711416870336,-0.013188096168342942
1580.0,0.4052707490107662,-0.46540432788725244,0.913801778037198,0.22800049124361663,-0.31700264356899177,0.003726130850855596
1600.0,0.2694729990036432,-0.5257089545571619,0.9965051826697178,0.20051910207092316,-0.3709173305633221,0.0065008529526449565
1620.0,0.17564957589156652,-0.5706715387334421,1.0118588231978844,0.12845058803756276,-0.3517052120318085,-0.024984578000813704
1640.0,0.09190912022695993,-0.6622574144302095,1.030466487736947,0.06553727617458206,-0.41510066666930284,-0.0007618002695153501
1660.0,-0.041270899677587736,-0.5236821352976212,0.9865795397836138,-0.05334380236091687,-0.3940591211803034,0.002784482807381716
1680.0,-0.09606515530482843,-0.46511872734685794,1.0024003443705312,-0.10474800628059351,-0.424305637436481,0.00949847100339296
1700.0,-0.30058414104911285,-0.5348691657506608,0.9930662075992601,-0.16410037492431387,-0.3910499803264272,0.0019210800360083885
1720.0,-0.3859328874938359,-0.447979178405255,0.9877984530700581,-0.24552519161805514,-0.34666353091299235,-0.0037029959416702406
1740.0,-0.4870003123600348,-0.3815726321665277,0.983816376496984,-0.3291811207323106,-0.22744731742382607,-0.0032982752794584297
1760.0,-0.5591178957407857,-0.2484024490035636,1.0160701379507813,-0.3604631389513439,-0.1608654640707096,0.012295723806045461
1780.0,-0.5136827835167129,-0.16412659709448837,0.9723806971551314,-0.3431790611370162,-0.1220520825044848,-0.0044255806476680756
1800.0,-0.6487540397079244,-0.16145529931541325,0.9868974539225845,-0.3707470176852635,-0.0741166892625602,-0.02299285113894869
1820.0,-0.681921677097116,0.057713656227573254,1.0406707990370665,-0.37858915088660855,0.027967503177936635,-0.005663989092905063
1840.0,-0.5379329811226223,0.21245471614435624,1.0250010993233476,-0.3956674032637404,0.05011225927489209,0.009410341042908507
1860.0,-0.6199704271285335,0.17842000729196464,1.0339871976858213,-0.349769163993941,0.19539398921174334,-0.01763215453571013
1880.0,-0.5121779590631453,0.3836921085173575,1.017787123995398,-0.3478009291604928,0.2558647552882941,-0.000694583051449176
1900.0,-0.46383266137241835,0.3429874150642622,0.9530525775136278,-0.29624739406697853,0.27356291239217595,0.007906584660980619
1920.0,-0.33440533930870975,0.5931610232712132,1.0181263525726003,-0.236509461718834,0.32875742140665537,0.004212382528992634
1940.0,-0.21173962923652032,0.5353728584807083,0.9940520841026541,-0.1641687881105198,0.3619812583195375,0.005621257508524391
1960.0,-0.15601192081265047,0.6014044506326373,1.0102053009250818,-0.0711034214731275,0.38496935681226274,0.003530342230780928
1980.0,-0.058057274312714735,0.7210119872540206,0.9962344893359992,0.014297194257156302,0.37442425495776954,0.012911769566641798
