timestamp,ax,ay,az,gx,gy,gz
0.0,-0.007782813771521789,-0.00545148601159959,1.0274817104260223,0.00025278253500977255,-0.0005345349386838476,-0.0008771906625092978
20.0,-0.008762731459704748,-0.004042236785776512,1.0177258205790645,-0.0005913265360503655,0.0003272411670030682,0.0004478481420012569
40.0,-0.02032482479944445,0.005228086947054399,1.0146366544976542,0.00033020755572797373,-0.0005276885184384357,-0.003086649576571126
60.0,-0.01369143176942589,0.004428489835233792,0.9751339240468225,-0.0010246047968977185,-0.000532822546568131,-0.000812657459970816
80.0,0.014348376858005652,0.0034148058353825877,1.0440834139389625,-0.002725215934621719,-6.632968492242759e-05,-0.0003117231205571596
100.0,0.008026227971965266,-0.012296378848048175,0.9945355537719863,-0.00017658181983093075,0.0002586816178078058,-0.0007732605781188698
120.0,-0.006977730137104109,-0.001488280515999692,1.0199958454496685,0.0007905544780783655,0.0007730231851224707,-0.0005517619290665524
140.0,-0.006949786769053282,-0.008985997868603999,1.0010520872018138,-0.00028873388793813616,-0.0010496462474885696,-0.00020540244947935788
160.0,-0.0036439276803549516,0.003737159764859778,1.025508581363589,-0.0035614155878794483,0.00011667671366040126,3.103459976287509e-05
180.0,0.004631833832990966,0.009073846439702772,1.0107187925049366,0.0015277814891351757,0.001744509550133795,0.0004376168778073927
200.0,-0.00922689640569126,0.013602148124741977,0.985436850625974,-0.0011452609860246499,0.0011936997134647015,0.0013062908977404801
220.0,0.006250380777584031,-0.013906164439853444,1.001577039529022,0.000801168193960484,0.001039187099366503,0.0009228278762538143
240.0,-0.0006191387254934866,-0.0054904625021115795,1.0362301426667309,8.198444647933421e-05,-0.0009902019894456116,0.002617200172700241
260.0,0.00606873600631509,-0.01811255212494481,1.002737069429735,-0.00020941815417814357,0.00028933520433458684,-0.0005601089726495234
280.0,0.0027809681066501895,-0.008207662737653602,0.9562850988303262,0.0011259247462995488,-0.00016779952933867527,-0.0005283137454931503
300.0,-0.01765166618188984,-0.005573180728071413,1.02276892641634,0.0004132356914137321,0.000609199746380086,0.00137625001356948
320.0,-0.01847544413302673,-0.0037376540338584304,0.9944384875134364,-0.0008474284456382722,-3.84929630639757e-05,-8.625341995220424e-05
340.0,-0.006879752704549845,0.007456345322017732,1.0048401500965611,0.002032814914018778,0.0018649321843387287,-0.0006103468233676151
360.0,-0.008270650067333633,0.008561871359016258,0.98827221758311,-0.000438528818616609,-0.0006631132026296932,0.001120720484702634
380.0,-0.004053137500976945,0.013357291071828307,0.9960615870899054,0.0010165787042121354,3.6458114800812e-05,-0.0003417659826621592
400.0,0.001972891852948574,0.004905214224070337,0.9820992266585861,-0.0017931974648842052,-0.00020092433301457878,-0.0002500451116408456
420.0,-0.005285214367750558,0.007778804073371144,0.9912946622498302,0.0005087743222765711,0.0001307280581745192,0.0008920681259407874
440.0,-0.008626583127183155,-0.010954865123893945,0.9854139903928866,0.0014793982751261224,0.0009716555043525854,-4.44902313286936e-05
460.0,-0.003429728196132321,0.015056358667485488,0.9703749700225451,-0.0006479121254893577,0.0017663137092198478,-0.00019321396137470236
480.0,0.007899533748238808,2.5607144757008576e-05,0.9861327514886241,-0.0012582443499156322,0.0013615571655137037,0.0016977383821874623
500.0,0.01128980530190068,0.001021364255177253,1.0240345311970338,0.001171146480302528,0.0005405459650955508,-0.002120988477101648
520.0,0.001990310536059442,0.0039893494880140256,1.0138136760261756,0.0008450623217478456,-0.00033517275708361873,0.0008435752021823156
540.0,0.007198110767463777,0.004081000471353266,0.9914465051771223,0.0007592368704450467,0.0002495210220279189,0.0008624073045951779
560.0,-0.008244123997269814,-0.0018095979190530115,0.9808658433770743,0.0015221289325752076,-0.0012117148919466433,-0.0002228895787778263
580.0,0.011033951168746881,0.016667758728782355,0.9971008642497388,0.0018445522518985204,0.0005028693284646202,1.0814424795068538e-05
600.0,0.0041021769929216875,0.008184113538109607,0.983701528273767,0.0023674463026915394,-0.003127680090550717,-0.0005017859358291212
620.0,-0.005619627718112803,-0.004163519459843758,1.021719475011712,0.00034214340623917066,0.0005708402494113314,0.00014604879899827859
640.0,0.00290553215206706,-0.0013202720099368033,0.9677600071581983,0.0010644067091034627,-0.0007875913163356105,0.001257668050789181
660.0,-0.00824323195516666,0.007206889060938759,0.995665768746809,-0.0005313816338510984,-0.00021034707886341842,0.0009324293001059721
680.0,0.005516980855222944,-0.003302199890469211,1.022081752024332,0.0002697568778532334,-0.0012617141793160932,-0.0005126708990721749
700.0,0.011110158396715612,-0.010356586897626203,0.9730919100695804,9.122060222432581e-05,0.0004706402457490157,0.0004196193196676922
720.0,0.007485715464396835,-0.0011709769033499586,1.0235223062892753,0.00022033955309276704,0.00026240562903968406,0.0010757072523209853
740.0,-0.00027675208812916007,-0.014293450501410754,1.0230254540756147,0.001201162689127395,-0.0011065306498263064,0.0015818166280310224
760.0,-0.013053824888563534,0.012425593918767781,0.996293947661055,-0.0006552528727745407,0.00015564533978862865,-0.0009183101462320961
780.0,0.000752734406143732,0.0004670031142799742,1.0148374777537295,-0.0005018620684952902,-0.0013740057999809532,-4.818714782107385e-06
800.0,0.006403410324891681,0.003700017433767619,0.9874025993999002,0.0036875913804434966,-0.00038737086525404387,-0.0002602662955177229
820.0,0.004863276426457376,-0.001699622086378963,0.9621445489573859,-6.200342762001265e-05,0.001182109948927846,-0.0006271226028003903
840.0,0.008964871881882644,0.01256559427765908,0.9966053850062736,0.0005747856711854532,-0.0003985772960430663,-0.0004060589046688069
860.0,-0.018660415065598887,0.0066467195986068366,1.019520909730894,0.0007525714102000043,-0.00014385453893787993,0.001120249598394505
880.0,-0.0031013793041052957,0.004460110528378569,1.0188950314006961,0.0003371518675809298,0.0015827351202304556,-0.0005728520867995938
900.0,-0.005138006343725589,-0.010683646161446248,1.0006505453158963,-0.0016222519991101584,0.00023805616325435708,-0.0009205429905749959
920.0,-0.0015828026746061538,-0.013929303732995009,1.024377810720506,-6.961123476633075e-05,-0.0011494826088008492,-0.0003177375306291645
940.0,-0.008635609740312994,0.0038673886520684763,1.0036596024757427,-0.00031594151061405714,0.0011138600314399884,0.0008778783147063226
960.0,0.01178122069902704,-0.010733912256667451,0.9722158160285926,0.0006378850672112576,-5.025368451737661e-05,-0.0004929088521169561
980.0,-0.012599666151506886,-0.015151529737553321,1.0177064241600087,-0.0007242064784847088,0.0011422795985034163,0.0013853363853034773
1000.0,0.011730128321143141,-0.004041216251802895,0.9704437705470368,0.0007877067567573556,0.0007721550238416757,-0.000811464549442552
1020.0,0.015504816610169178,-0.001360918833096173,0.9877188333090282,0.0008236474753251021,-5.167393633959407e-05,0.0005389397932291143
1040.0,-0.010691395209375731,0.004710911498145253,0.9924317973923484,0.0015522449508048005,-0.0009097155171557597,6.488354335345771e-05
1060.0,-0.0046606380736782475,-0.010852853818644053,0.996837678686817,0.0006459320928811544,0.0014075371087424833,-0.0005836374857897249
1080.0,-0.0067189673627420935,0.018195319652639964,0.9951198356137736,-0.0009003758950367044,0.00015022884462857414,0.0015141523389114878
1100.0,0.0061158199289025016,-0.004449718313966189,1.0116958088118693,-0.0007230823017759747,0.0004635158151700339,-0.0008729212691001121
1120.0,-0.0009584436939488995,-0.010806647246428124,1.0281970598271335,0.0009319371959919641,0.0015191237391230107,0.00010341779662875494
1140.0,0.008551948524796245,0.012997889786127408,0.9922873609357402,-7.638325199219177e-05,-0.0009371539792451144,0.0011504691471612627
1160.0,-0.023267317692155745,-0.014033274305857471,0.9446574343525218,0.000298506404123833,-0.0013289273715185552,0.001183239856553229
1180.0,-0.006706810207396947,-0.0028350023219965554,0.9447693359430199,-3.753553700956209e-05,-0.0017940040677236059,-0.0012456903795700336
1200.0,0.015555473744119561,-0.00014707254668700894,1.0153071017382955,-0.0016343444407361598,-0.0003045039726771798,-0.0014580168144126783
1220.0,0.0009020963873000324,-0.027627800721819994,1.0114034598782407,-0.0009542772579883774,-0.0008153470884662873,0.0014084752736211717
1240.0,0.018837260138496764,0.006482934114300976,0.997459652170987,0.00212832208260641,-0.00023348479468666606,0.0014287716112439148
1260.0,0.004815488707280965,0.01113996077819681,1.0064324537358036,0.00012711437481855253,-8.185849727929933e-06,0.0010743577733481088
1280.0,0.01114188523903374,-0.0007341554669891705,0.9853603673793231,-0.0003387830535061966,0.0007632374486722648,-0.0010323150410087344
1300.0,0.0021563050112141818,0.0020672242039085392,0.9807997781333048,-0.001013675745842148,0.00044545694821519267,0.00010679377190023221
1320.0,-0.0004294759166432038,-0.00012507525768601,1.0116315209451154,-0.0002842002829617993,-0.0008025726415892646,0.001225074767760738
1340.0,-0.0009102092688094994,0.0026794855535111368,1.007500132670761,-0.0002617292417854704,-0.0005499288636912235,-0.0015164792299129433
1360.0,0.007661888294817552,0.0036592807252943966,0.9816791879462372,0.000492688343835212,-0.00041943977262398375,-0.000841021791462582
1380.0,0.004890144425102212,-0.02057909448883531,0.9866074250850976,0.0010439367616047503,-0.0005772526725831036,0.0003864501650365398
1400.0,0.0012141141036531378,0.004090830233204431,1.0180491425390514,-0.0007628092178254657,0.0008761971845342825,-0.0004429320392575189
1420.0,-0.007509758779964,0.0031781456953781893,1.0066105551720732,-0.0001427961875463978,0.0011485269700154063,0.0016946666683331022
1440.0,0.008547738484826779,-0.010859757322125928,0.9887510334326906,-0.0003611385534346341,-0.0017568117432479778,0.0004853715989596419
1460.0,0.013894972453833096,0.016333958719152875,0.9872976767464816,-0.0012228999658408155,0.0003091669660918709,-6.376760188216137e-05
1480.0,-0.014230550867440852,0.00021131785057669717,1.0209477168047019,-0.0008265715912763062,-1.4207886389577498e-05,-9.289393613466952e-05
1500.0,-0.0013861001029695735,0.008558056248418898,1.0031799843118425,-0.0026834743076164552,-0.0025369268048839036,0.0003685100131183573
1520.0,-0.012777904788558045,-0.008165498562304627,0.9735194966837154,0.0004983672398601053,-0.0018821013919117053,-0.0013036970519704854
1540.0,-0.012575748006845645,0.0117308773043863,1.0216206790459397,-0.00041418563755488895,-0.0004802905316951571,0.0006744992803104557
1560.0,-0.02063621078496751,-0.018307848172148318,1.037444225815533,0.0004873687928373462,0.001661393551606622,0.0002764896377115865
1580.0,0.0027349893673863108,-0.007708448295398633,1.0051082226069425,-0.0008073424728890754,0.0006536356839016511,-7.206641952334037e-05
1600.0,0.009810287444876028,-0.004480768225404625,1.004761523364938,-9.583097644437662e-05,0.0011654569001633436,0.0021784471441521794
1620.0,-0.003421778823372092,0.0012957249100932705,0.9751950175588482,0.000991856978837968,0.0004061937293434171,-5.23584599165673e-05
1640.0,0.006936898555551156,0.0017392211196003147,1.012449649858475,-0.0005925156855504984,-0.0006335049933909884,0.0001399222157417254
1660.0,0.005602457728631812,0.0014726866655154433,0.9810189643452847,-0.0013865114731742285,0.001561325253806486,-0.0008473317259918017
1680.0,-0.015052596683191755,-0.0030763411343333164,1.0337308529620954,-0.0010787729256248003,0.0005044693973108457,-0.0026202145602939445
1700.0,-0.004283545317402633,0.0017814757181927607,0.991709531602323,0.0012659374172263621,-3.2097397116988606e-07,0.0012985730937992179
1720.0,-0.005037517943211713,-0.008638897916933393,0.9835086387090256,-0.00111360280576185,-0.0007648094120906621,0.00017931597154242026
1740.0,0.003527569077594957,0.005704242040619185,1.0231568436337883,-0.0008874573170213979,0.0009267007406516166,0.0003377759554734771
1760.0,-0.0071215773140277565,0.015484225345027833,0.9623440522540107,-0.0012856280436362474,9.18828744398711e-05,-6.375539197964143e-05
1780.0,-0.018753755095344764,0.0006252877866150257,1.0598636966489319,-9.37363952558804e-05,0.0006170694692863231,-0.000500731570699822
1800.0,-0.023976860327465523,-0.007519394038602051,1.0245676676524003,-0.0012132011442994254,-0.0003714455133366264,0.0013935165369056777
1820.0,0.015026348419705269,-0.0019625138322533434,1.005072234288819,0.0010282845448505416,0.00019621572057534315,0.0009263030497286668
1840.0,0.0019329324553070523,0.0047478225156861635,1.0004447453711223,-0.00039226209837188203,0.0010404853401818944,-0.0010983541242621233
1860.0,0.001916574434021206,-0.010212019729985347,1.011256903381052,-0.0005428653968636454,-0.0016905621102061312,-0.0027400662576864848
1880.0,0.0025412436937864457,0.005083794100417747,1.0117077565204147,0.000704675726443688,0.0003199817042506446,0.0013073747689500313
1900.0,-4.090133868451037e-05,0.007919324747548508,1.0085491251024348,0.0003862692446913963,0.0009334938241949928,-0.0013066117793630154
1920.0,-0.014161686004488283,0.009092773853738707,1.0362637615835049,0.0009013256125378407,-8.514708162139919e-05,-0.0006792748981318136
1940.0,0.004457631809848814,-0.0066228510660644325,1.0005046496257253,-0.00044958329313215194,0.000564128393954695,-0.002858929222777084
1960.0,-0.018305163650780065,-0.024784490773580733,0.9971584491590598,-0.0023093795681974442,0.00018871066751660438,0.0012927212396572254
1980.0,-0.0019700333138035005,0.010674393431091228,1.0289374570581924,-0.00039819540769740525,0.001759366616703103,0.0007987322198116904
