timestamp,ax,ay,az,gx,gy,gz
0.0,0.01245335092805985,0.01244449255921817,0.9832556220238573,-0.0018787611599141787,-0.0006838395875174247,0.0009604302081061954
20.0,0.00712085475885916,0.009936117878809894,1.0450968189245808,0.0005599665703263068,0.00048324488948565275,0.0008079458874782198
40.0,0.019742180193924288,0.021052202580791008,1.0150860202187613,0.0010274318731755636,0.0009921479796476966,-0.0018716108723011043
60.0,-0.009445708419305738,-0.006497393591805114,1.0060169699305304,-0.0011406100035655643,0.0013763606995216807,-0.00016390704293584187
80.0,0.01880262290782491,0.008549560562574856,0.9573476762660542,-1.975678727987456e-05,0.00016762115259684384,0.000477813135082429
100.0,0.0063257366333758416,0.005186767920711357,0.9918329034284193,0.0006822887640198733,-0.00040191226188120627,0.0008091412601814362
120.0,-0.016143871368539973,-0.0035414690489832122,1.005957374853562,0.0002666362515594192,0.00010636452149103793,0.00043161536975073865
140.0,-0.009336554011819159,0.001746234328512463,0.990258619361679,-3.648596138386535e-05,0.0012346777363226116,0.0009377629184896636
160.0,-0.005084741835272524,0.007173024258155778,1.0321522859310013,-0.0006863952298319332,0.0003341330135422982,0.0009191045979981689
180.0,-0.010791160990980651,0.00934884352556482,1.0112629623672689,0.0016738463775510001,-0.001619172963615668,0.0008617018137556295
200.0,0.010135751936673591,0.005632584863832623,0.9594552870467072,-0.0008859949926705674,-0.0009249152108888724,-0.0002778914025225114
220.0,-0.003182026056187638,-0.0024808755194533345,0.9760601380444192,0.0011913949235056748,0.0016336614573719051,-4.032154547804966e-05
240.0,0.0008234448461740346,0.0013703095686013146,1.0108419864681186,-0.0003211784594637693,0.0009469003441379089,-0.0002911153966726159
260.0,0.0051203049904204306,-0.009800601179345845,1.0111494894069848,-0.00041354661593674235,-0.00011665711428085346,-0.0016947559771215916
280.0,-0.005824977860583799,-0.02674525620607116,0.9849256180911243,-0.0006961538082540229,0.0007530362403449942,1.966501066934235e-05
300.0,0.012427911616341256,0.021330305582323898,1.0176276778859574,0.0006194534434496099,-3.6162384855010074e-05,0.00013347704626697334
320.0,-0.01631601975992045,-0.004810182894178161,1.0118616208807865,0.001399594679111811,0.0005894117810652415,-0.0018242895723686314
340.0,0.011384012842064804,-0.005093221533864244,1.0038798892326037,0.00013913879788188775,-0.0009223543215857762,0.00015362501542521813
360.0,0.0047995856747479046,0.003348571657712009,0.9899334676745232,-0.0017057606732425545,0.0013749591607810335,0.0014055443147359633
380.0,-0.008699168079750621,-0.0006515841357218668,0.9996452430283184,-0.000509451708958606,0.0008350238861174484,-0.0006368602945756965
400.0,0.00758793553314699,0.004198957567336708,0.9828338375596324,-0.0021355147047184904,-0.0010298456992771795,-0.0018022746337074025
420.0,0.014088535590410652,-0.003309159269736754,0.9778213903746346,0.0009216751258602674,0.0002892705872418914,-0.0010212742103970257
440.0,0.0018595560267457855,0.00021903106765084915,0.9950344714303415,-0.0007358305828556294,0.0012163253371844918,-0.0005159561900908586
460.0,-0.00485835212321919,-0.01897856379551056,0.9590255018920302,-0.0007194918014304514,0.00040387498912627614,3.406725995243553e-05
480.0,0.0031345149520830414,-0.010196701808091525,1.014298115617973,-0.0007561660030190317,0.0009870683937397426,-0.00021646636829724235
500.0,-0.01083653011333443,0.004599862487493153,1.0040751621389064,0.0001935886284963325,-8.246049173492961e-05,-0.0004496816195825089
520.0,0.019460344388596906,0.015768100591974178,1.0207238610909934,-0.0007634444849372744,0.00033831834260182673,-0.0004458247005901162
540.0,-0.010372214689623151,0.008299463005516285,1.0010287180874633,0.00043568044497393067,-4.187796707202457e-05,0.0009364552698946559
560.0,0.006678895170582817,0.0010405628253800192,1.0340423602868374,-0.0004157302700252714,0.00020927554873234098,-0.00041891962197959995
580.0,-0.01508092839436201,0.0054433992909277504,1.0077425552144097,-0.00028848249357037165,-7.614718946710717e-05,-0.00018608926353552358
600.0,0.009665111472149325,-0.002729776417142264,0.991507011454153,-0.0009732003766834449,-0.0004238513874826092,-0.0008563948678818676
620.0,-0.011760936302854168,-0.0006262168471867336,0.9917268429957372,-0.00010104531776847701,0.00029645729601421805,0.001229723901037679
640.0,-0.006099121960975108,-0.014727089986549402,1.0176390306482102,-0.0002497068305753932,0.0004634958029440843,-0.00046683458716257215
660.0,0.010219524643952857,-0.005220441551495619,0.9851509429048257,-0.0004436105580694167,0.000982332021199992,-0.0014249637142656041
680.0,-0.005435569005811392,0.0017813786961044917,1.0224426367006112,-0.00014820918085646,-0.0024457071054279616,-0.00017811834647080827
700.0,-0.0010994323918187986,-0.013278844903589564,1.0115435914637172,0.001001393344199424,-0.0006069997706675688,-0.001707900893233547
720.0,0.006383163243682583,0.00011233535657160914,1.0076374442481262,-0.00014317703904423838,-0.0006056617392448211,0.0008112319837214909
740.0,0.008205310405540973,0.008450314717951655,0.9951275131915702,0.000910681921339901,0.00047745141110830896,9.963715888541545e-05
760.0,-0.016108722271573454,0.002902458678537691,0.9973088884337103,0.0007078052537909487,0.0008277210271929514,-0.00016744617972625715
780.0,-0.003230547574064009,-0.012439635309058821,0.9859746098511065,0.0027439868316931865,-0.0014274767781481017,0.00165583198495609
800.0,-0.012713589592209107,0.019448823459738456,0.9779278025751069,0.00037995732973824457,-0.00032087825321200467,0.0006011675033471021
820.0,0.009712063493153168,0.0002279482725146533,0.9982597965986406,0.0016814536764119595,-0.002104593803391192,-0.0015087967190245887
840.0,0.010199883719088445,0.0014847542843233837,1.0092457776956316,-0.0005917881173759028,-0.0007862496132038013,-0.0005406704339102529
860.0,0.016146592724563855,0.01537313491311744,1.0116091268918854,-0.0008625428236231054,-0.0006867865699494817,0.00025494643551486954
880.0,0.010826505279487385,0.0067855524212687484,0.9919541534737288,-0.0012512442004490307,0.00011394896840414179,-0.00026480531278826215
900.0,-0.004878173048609834,-0.0037126441586785054,0.9658410153248255,0.0011394788640458884,-0.0005971455953550053,0.0010468627928362192
920.0,-0.015662613894750523,-0.01363248823736839,1.0163162594754684,0.0001678378545190674,0.0016000383077653996,0.001206848970783517
940.0,0.003045717647026579,-0.004649237824682845,0.9730783880161941,-0.0006470780266816519,-0.0009624570014364339,0.0009089324389707351
960.0,0.013127475115773649,-0.00016633778064428323,0.9973224257361651,0.0007052956944369311,-0.0006698762236876426,0.00032967878856322847
980.0,-0.004964727569974027,-0.018556954035178947,0.9801045907499756,-0.00046411269664598426,-0.0002815010199838652,-0.0013548160643164645
1000.0,-0.0038254228824734257,-0.009664777085099172,0.9846327442482976,-0.002223901660766039,0.0013480229394393136,-0.0005417590781691601
1020.0,0.003616889379951782,-0.004811356813178581,0.9909161821436323,-0.0003816357887793899,-0.0011714315693804617,-0.0009888812285235343
1040.0,-0.012920956070652467,-0.001740658981729609,0.9944398852556641,-0.0024811940922737845,-0.0010126261736991744,0.0010965641757159155
1060.0,0.017906285639474728,0.02055616004396526,0.9873640953374677,0.0001649748247583639,0.00010998365346711052,0.0004797286091311592
1080.0,-0.000253527835781878,0.02912247488520555,0.9936336272550558,0.0006213280737109999,-0.0007165509810590138,-0.0012004057139924592
1100.0,-0.01373114493571815,0.025833802309253768,0.9512814562899728,-0.0015376388672353868,-0.00102619903779554,0.0007961287822423608
1120.0,-0.010625354158047232,0.005055671779328034,1.033140479886262,0.0010850820545635614,-8.684469790176766e-05,0.00034778394060841375
1140.0,-0.0056471728360448625,-0.00574130140904689,0.9723593212140605,-0.001807486462422497,0.0004500984986937172,0.0016744110940514992
1160.0,-0.0020212366341948334,-0.0029581745143897097,1.005415127258963,0.0010067223209189937,0.00035747551257772387,-0.0011854915707518335
1180.0,-0.010793609968288747,-0.0007086751083007356,0.9825726101171394,-0.00015076260375217757,-0.0011274169879414819,-0.0010382798737992253
1200.0,-0.010925937485771144,-0.009415280209079134,1.0150566968931987,0.0008994942923068624,0.0001768966977819358,-0.0005399295582833884
1220.0,-0.012261933450051712,0.0018167272496190559,1.0326376605807577,0.00022659574519100535,-2.844673811984866e-06,-0.0003652261367613296
1240.0,0.011131756722880646,0.013630931694434563,1.0327643109984912,-0.0004586742188630844,0.0002922281803419634,-0.0025544906168701595
1260.0,-0.003913663785795239,-0.0033829516810685114,1.0092365978237878,-0.0012652634150501628,-0.0011860454143391734,0.00047813924738676676
1280.0,0.008479177328993016,-0.0074875091992995906,1.0056120614317592,0.0010686000828467658,0.0014495787687440623,-0.0010600252409971528
1300.0,-0.011180708902961807,-0.01425353578348868,0.9460037199689945,-0.0015608660773263861,-0.0008501436215564496,0.0010202963892463554
1320.0,0.0019507079104459043,-0.0010553312165954517,1.0034930916563223,0.0006802963531450023,-0.0008885879226276497,0.0002945591177566928
1340.0,0.006381180301310518,-0.00735665001704797,1.0110194444623162,-0.0004523822006438727,0.0010084255959475047,-0.0006557370043651069
1360.0,-0.0040947409686272465,0.005881474288967142,0.9996191716512796,-0.0006422571586409494,0.0015917728248518697,0.0002993244153295058
1380.0,0.008710327547565531,0.004286099234043311,0.9955986128126072,0.0012624802689837251,0.000126066886321148,-0.0011811235818368175
1400.0,-0.0074785700937841796,-0.009738733808207809,0.9653710035199764,-0.00020257152157158678,0.0012118838665006989,-0.0007170177974276414
1420.0,0.006746116543825385,0.007400651524447659,1.0209909620980206,-0.0014729140694218232,-0.0005307750073573265,-0.001454364498547811
1440.0,-0.003975074948573909,-0.009673268497624843,1.0251652314419861,-0.0014499637863289482,0.002750106927742442,-1.763255537710376e-05
1460.0,0.007249374460999783,0.02998355094265076,0.9847483010955796,-4.6698936672493555e-05,0.0006395310869896566,0.00048756712526522875
1480.0,0.0016351383739220816,0.014938082312610696,0.9626223077471556,-0.0015257295883084798,-0.0004553527382842604,-0.00014103917288878952
1500.0,-0.0015606800448847997,0.004927344120731024,1.0396704366117238,-1.989799486627092e-05,-0.00022928807916528676,-2.832088666294638e-05
1520.0,0.00342691480670627,-0.020354534205670058,1.0291739163853573,1.8030802672216632e-05,-0.0005919516209167666,-0.0010194522429351088
1540.0,0.0020164055630496457,0.0084676843858486,1.0082950866325586,0.0014748935639299315,-0.0014327393956893504,-0.0004965156176515545
1560.0,0.016883227355787057,-0.0005424421021796351,0.941952327051092,0.0003745711519310904,-0.0008170263835244236,-0.0009740062468576794
1580.0,0.00980433832289712,-0.0008891585601933976,1.002777124817326,-0.0009158659801260854,-0.0019277555759667222,0.0006397803868001329
1600.0,0.007271420383409847,0.00822778281139591,1.0064933112506307,0.0012315947193743593,-0.0008109932432818005,0.00044143902512011325
1620.0,0.011464550241069071,0.008514669040264922,1.01798267351416,0.0006753175423568435,-0.0001862412702010576,0.0007160803307628472
1640.0,-0.00976661321081881,7.364509122897677e-05,1.0061147464278013,-0.00011093873335176453,-0.0007750767447608833,0.0010034985203333253
1660.0,-0.009819533472250003,-0.01310227801069567,1.0113123719783368,0.0006282003608390377,0.0004095512486653741,-0.0017677628265791226
1680.0,-0.004597757919808292,0.00036154747074774974,1.0248082551803608,0.0005348757973601354,0.0002490324954975466,0.0015246007829349034
1700.0,-0.01795647912964194,0.014233898198859982,0.9886024114864075,0.0003602911770934007,-0.0012189131026426928,-0.0006955154046718725
1720.0,0.0027944490983868426,0.010827618068984548,1.0119299674492255,-0.000339904595337704,-0.0004623425907816668,-0.0006973054170460532
1740.0,-0.005204737997034977,0.001620254990598409,1.0097510634874924,-0.001908258232690829,0.0017666821415821396,0.0015881173178055514
1760.0,0.010775188128241811,0.012560455412094993,1.0250758188826976,-0.0006777398982056341,-0.0006652924620183126,0.0003726069792295904
1780.0,0.001527774346976239,0.001294236259010423,1.013120452686153,-0.0003687601848725156,-0.0019347759162043833,-0.00011527241630126735
1800.0,-0.017786515355393148,-0.0015125902433681838,0.9962796109896711,-0.0020798909585540933,0.0015448286602776583,0.00032243579575187096
1820.0,-0.010833548497573122,-0.013935663765700204,1.0023124471035194,-0.0010124397093301438,-0.00017957915079359758,-0.001326288813030696
1840.0,-0.0032914972916495405,-0.0015412767118617532,0.9953098570787416,0.0005165190191405898,-0.0001342654615908727,-0.0018541949587411112
1860.0,0.013872457789784501,0.009808447365708572,0.9937348879172277,-0.0006460662981037863,-0.0006960988402645729,-0.0005981880936597647
1880.0,0.027324344357728365,0.0185592670034231,1.0144720706121484,0.0016535360214378599,-0.0011728564034027098,-0.000674478894735048
1900.0,0.008497352681507631,-0.00221407979767028,1.0292727040666265,0.0019527332261076462,0.001169715431655127,-0.0021487606359657445
1920.0,0.0018808463352712713,-0.005253435534822332,0.9889733614125992,-0.0001248488660967778,0.0015496300062020911,-0.0005340700038763917
1940.0,0.001451793611853379,0.005338065382588808,1.0377405114685894,0.000785251824421347,-0.00027101549489279454,0.00047005784804187594
1960.0,-0.009611918346715907,0.002404466658774223,0.974502461034305,0.0010929338811247187,0.0006411504654443322,0.0019569579703874822
1980.0,-0.001993526955682435,0.003651725854984179,0.9898745270616353,0.0007872279894021231,-0.001246039997621237,-0.0002947383549756976
