timestamp,ax,ay,az,gx,gy,gz
0.0,-0.0005873005764156763,0.0035080261682787933,1.002089631300186,-0.0006150435036973061,-0.0010610154133039841,0.0009324171335695093
20.0,-0.011523621900131906,0.010419337094145931,1.0172771453236549,-0.0012954499265597562,0.00018479692310237398,0.00029715948139359997
40.0,-0.009125064082403036,0.004583659235495071,0.984711074417364,-0.0002725720688985287,0.0010160048983628325,0.0005873793440882114
60.0,0.0008262558956492297,0.0005606781536300841,1.0046782411089763,0.0001518721283720898,0.0007600492269706345,0.0004986928731145633
80.0,-0.007777385099030005,-0.009507876002147591,1.0148374263264606,0.0011540941101642064,-0.0003258371864820813,-0.0006764955707381962
100.0,-0.0010216943264016497,0.0038006246738238325,1.0366959081996074,-0.0013188836420241008,-0.0010060206412905077,-0.00026175091469167515
120.0,0.013606132415436328,0.011938804121388312,1.0241408844028737,-0.0019600934737995044,0.0007289183394364458,6.149688930397286e-05
140.0,-0.017949947996262285,-0.004385307905699913,1.0013704458924568,-0.00043737247553855016,-0.0011485709616268366,-0.0007808320036974995
160.0,-0.004080463362425893,0.019215666521660568,1.0100448160043005,0.0007672021272227707,-0.00017735552327159597,0.00038448198684953345
180.0,-0.00034102165440876497,-0.002973024042741656,0.9704030304561225,0.00021891388003708275,0.0005829203941171312,-0.0002989752425394079
200.0,-0.004443647823835923,-0.0022398799445787544,1.0244887027419647,-0.0010910363014342678,0.0007812148417283238,2.402372427205077e-05
220.0,-0.011087522386027917,0.007624838560177174,0.9938701519021855,0.0010873170790205377,0.00041445860029859196,0.0008368043414191371
240.0,0.009476443529116453,-0.010268473882930704,1.0133794005985337,-0.0006659075318202191,-7.08325882353567e-05,-0.000797456181338727
260.0,0.007244959689453278,0.014987069182696013,1.0028210858432987,0.0016018021459976598,8.546828115803333e-05,-8.360386558286395e-05
280.0,-0.011090962326664342,-0.003743340874446455,0.9902163158024805,-6.992572051758465e-05,0.0006007338116835361,0.0012413701774031444
300.0,-0.012202359647066776,-0.004136935853380731,0.9811265258483081,-0.0005291633219146165,-6.397982019909208e-07,0.0012165988430824096
320.0,-0.015202976670832492,0.013004465058331454,0.9631626111116455,-0.0003056151167865869,1.725496594484011e-05,-0.0010610379347905307
340.0,0.010850343882466813,-0.003200533246974367,0.9755706865982822,0.0003059717926540256,0.0018358279753489034,-0.0011918978813485073
360.0,-0.005979567285547012,-0.0025762797738651576,0.9800830092157058,0.0007902429039009524,2.5954800195106817e-05,4.070345071366354e-05
380.0,0.0017040282966612678,-0.012324447773147257,0.9989804110710448,0.0004700289850131066,-0.0009163016176390558,0.00042458212215874743
400.0,-0.013300527242054891,0.006647661369958332,0.9851963315363912,0.0006837664588786843,-0.0012947836266868984,0.0008245956734047973
420.0,-0.012233074105599878,0.014433160488239456,1.0145970059669933,-0.0005804919619181197,0.00036193165152801667,0.0014563211693855295
440.0,-7.071133624116827e-05,-0.0015178793900262758,0.9848476062906383,0.00013446119010024216,0.0009377643890635461,0.0013915755975091445
460.0,-0.013419679704684911,0.006899409169806421,0.996792762547341,0.0021693534561276692,-0.0019171694065220572,-0.0004346646280558925
480.0,-0.01638265670199125,0.010313670768134598,0.9954779738520335,-0.00015547724670402174,-0.000491090147146415,-0.0005217042505369753
500.0,-0.01579796283706132,-0.0008960477100825086,0.9999431084875064,0.0004743367197270018,0.00036618237672698104,-0.001093616518272888
520.0,0.011591508199023744,-0.02019145640716702,1.0004770110868733,-0.0006683301464605251,-0.00046412208953381593,0.00032083114891952547
540.0,-0.01072105522461792,-0.007005666527327212,1.0154343650956785,-0.0013037755221657155,0.0004475564069499643,0.0005302257308651061
560.0,-0.003707928971314487,-0.008230783905443453,0.9733240325310543,-0.0009743256889361768,-0.0007677215914158755,-0.0009224342842109709
580.0,-0.004843505930685163,0.002239053683720509,1.0179043223499054,0.0008005954267714662,-0.001899337551283577,-9.443609491512276e-05
600.0,0.0057783590614911545,0.005135717236793216,1.0047025213504628,0.0001845387200699178,-6.839629211315918e-05,-0.0015662667553355523
620.0,-0.0010021212996397335,0.0016993826032007217,0.9780674217384057,-0.0007008579741853048,0.001233665525618279,0.0007989947895484551
640.0,0.007215701457507614,0.0028838212289963834,1.0200110484224258,-0.0005679120767825988,-0.0004677371950163411,0.000289436244258054
660.0,-0.009120639238112451,0.010535752289571368,0.9792298505162803,-0.0002989021937937122,0.001790683458061406,0.0012521639697875174
680.0,-0.005691031220649968,-0.006184154965475537,1.0198691445019044,0.0008361978022601199,0.0007440945032282459,1.9195109924091275e-05
700.0,0.00042607960347012516,0.008114692483091544,0.9890987758192319,0.0015136261710803468,-0.003029596240290576,-0.0022464267347111423
720.0,-0.010885787602580466,0.010038061569119272,0.9908691827749574,0.0007714792107268931,-0.0007171889573873102,-0.001278957173243334
740.0,-0.0019006513494666888,-0.007280186471622234,1.0124194693689652,0.0008666965536130328,0.0008096514530279463,0.00016674033611796855
760.0,-0.0022814522604924273,-0.011629181410140807,0.9934033248725566,-0.0005194837834983151,0.0005082832137292451,-0.00025835692192769733
780.0,-0.014551181768675446,-0.014891752852029254,1.014609870458005,0.00028569170995132,-0.0011438779300423658,-0.00045646216114286075
800.0,-0.004607415926862597,-0.003628585530780792,0.9951672587409839,1.4795343716619948e-06,9.88589800029043e-06,0.0005004832875050581
820.0,-0.0008175300168644115,0.009181925928666835,0.9748415019926719,-0.0017998385197770684,-0.0009689758421438955,0.002166756365518977
840.0,-0.011406059464176792,0.002165852604702809,0.9932653300335063,-0.0009809261888864,-0.0009575522332112671,-0.0023742503648107025
860.0,-0.020728997158556126,0.00415865727726608,0.9876182853311073,0.0004843578997686632,0.0009297662032804333,-0.0011818767251465414
880.0,-0.013127557753303746,0.005549000566307397,1.0118681679265302,-0.0010270629999112883,-0.0019197602756987069,-0.00010914632451714418
900.0,0.007676864584684516,-0.002017334764728731,1.0038628003327645,0.0006208618188498782,-0.00027994068064905205,-0.0006429052333477372
920.0,0.01790644659526261,0.0015952909354574533,1.027649134617673,0.0006467385094323922,0.0007095352368349581,0.0002820230237246343
940.0,0.004815144802317094,0.0033457250175581176,1.019783991789115,0.0014404146016868877,0.00017687103222781806,0.0003668068554436887
960.0,-0.010278185174635713,0.005506678419576901,1.019416218220501,0.0007300452679018507,-0.0010159892935179427,-0.0007336047140080034
980.0,-0.0055522897611860154,-0.006632097467544955,0.9672756637656532,0.0016792130506156394,-0.0007313970695049396,-0.001100243060434769
1000.0,0.003425539015920691,0.004909493184650606,1.0012410057546244,-0.001081220251600486,-0.0008804134806313528,-0.00025219896200140397
1020.0,0.007854664162236348,-0.008060805443217703,0.9829744316763496,-0.0005149438814635839,-0.0015489249012750788,-0.00020316813099217475
1040.0,-0.0011293227627652569,-0.0063984912427617014,1.0040830125667772,-0.0011630117797637486,-0.0007940123212060793,-0.0005337470212503179
1060.0,-0.004125928819876798,0.0004630636703035376,1.00329525692299,0.0009349654333731319,0.0002957751525403106,0.001265666211645107
1080.0,0.004590126543567825,0.0069264051089653065,1.0230837083572677,-0.0012791397349350031,-0.0014861148201933264,0.0022407613121386907
1100.0,-0.0017392797778612644,-0.010523386850495467,1.0308258487828856,-0.00032391932465876617,-0.001032978460056309,0.0005060662626718837
1120.0,-0.0009172430819943146,0.004802964781114309,1.008746245259844,-0.0008116239098620818,0.001969691486842682,-0.0012490499202773484
1140.0,0.0014968041509749157,-0.002258367271397371,1.0389243966537316,0.0009387290226923571,-0.0007817629920788693,-0.0005248969159402969
1160.0,-0.0005237793104901193,0.008702430188710036,0.993026260240535,-0.0003435971122724859,0.0019079709837361528,0.00099738438560397
1180.0,-0.0006004205647236559,0.004816949231849304,1.0374805376461627,-0.0008215667444056683,-7.7769771765349e-05,-1.7167119302489732e-05
1200.0,0.0053567761105907255,-0.003171863945861079,1.004293771385796,0.00011426181931784773,-0.00011067648741027094,-0.00040071105778048856
1220.0,0.005862073815328835,0.009609138152272911,0.9964038644318157,0.0008274910959882043,0.0009534322564397165,0.0015962310324424554
1240.0,-0.007827488085122673,0.002227921684400468,1.0154961802272489,-0.0008179772441372686,-3.785008055112502e-05,0.0009273676685466486
1260.0,0.008212383430332705,-0.007865343661702953,0.992556344607464,-0.0008473030955888644,0.00021604761197390344,0.0006024795481270006
1280.0,0.00016064116836646847,0.008946081062226403,0.9475561976204732,-0.00024804094453927046,-0.00014869574736770818,0.0004142950882218672
1300.0,-0.007869059576951054,0.010477001695176345,1.0113866584099036,-0.0005433985826159317,-0.0010249750693992763,0.00026999751916187615
1320.0,-0.015420799048077888,-0.013652744809959365,0.9519957526905123,-0.00022649237153734233,0.0009115480745612169,-0.0013370094493804837
1340.0,-0.010745141872126463,0.006040467495379197,0.9951205478899319,-0.0002797384868324417,-0.000672092929857475,-0.002024792483580803
1360.0,0.015537497243095834,-0.02790103809186163,1.014376810328468,-0.0010754310596019913,0.0008220699923401395,-0.001127970182630171
1380.0,0.0050074723861323975,0.0017166988429557911,0.9865193208291869,0.00023261322278602057,-0.0017728483354398728,-9.605263038358331e-05
1400.0,-0.011699185579328428,0.0044778460685455735,1.0057252232287748,-0.0006464177759004381,-0.0003926776891661707,-0.0004668987305348629
1420.0,-0.0014177416672645552,-0.012459870919717736,1.0229521520261375,0.0004909195077620965,-0.0011016305252583545,-0.0008642293178635542
1440.0,-0.013728911515182358,-0.013970042618819492,0.9916353972395935,-0.0004209132764479643,-0.0005976201082770464,-0.0020170421778009074
1460.0,-0.007523428611032513,-0.006506166489004227,0.9943534976972418,-0.0011520141901070393,-0.0014237283343919306,0.00023058367041653508
1480.0,-0.014122881196169862,0.001104386291015074,1.0011459027462157,0.0012311345979232444,-0.00011722901972212505,-0.001174165243099932
1500.0,-0.009733614675156477,0.001833378660228916,1.0032373562211985,-0.00030589941714225243,0.001811133573747216,0.0011511613574054502
1520.0,0.0004377053144085541,-0.001698538838632076,0.9568362640563657,-0.0005280737325341844,-0.001782417506746164,-0.0004878730315715491
1540.0,0.003594516193165703,-0.0035902715629598783,0.9920783694901377,-0.002094068077054748,-0.0009067614289242371,-0.001690527039927037
1560.0,-0.022207661745080595,-0.00026142431512169844,0.995594605791778,-0.001135572033875869,0.0003318339651054877,0.0010447897820024077
1580.0,0.001453904464433209,0.017359952082471233,1.003936674094149,-0.0013296302247019617,-0.0015653538127346485,0.0017046379172699177
1600.0,-0.007570989873250777,-0.01651123998764477,1.0144098828868708,-0.001429401025758654,-0.0005589327324314029,-0.00041701227874419073
1620.0,0.005045269075301313,0.024219592562849664,0.9989690900350752,-0.0018945446939981616,-0.0011978697102366953,-0.0017506014581346802
1640.0,-0.0007049161258383334,0.001375795577575939,0.99193683113679,-0.00046189350710856673,-0.0006970985649129141,0.00013542101802873643
1660.0,-0.0021786361445758707,-0.0024389805924327997,0.9907323901646632,-0.0014371021103602704,-0.0009655616571337059,-8.938741916088863e-05
1680.0,-0.009179031158824659,0.010122802061813546,0.9746564979642167,-8.12793702197344e-05,-0.00034049094371711616,0.0008749744921957514
1700.0,0.0024939819755001686,-0.01720275438568318,0.9976117683318597,-0.0007732906447975511,4.4016487256858844e-05,0.0006469414100057716
1720.0,-0.007893059909305621,0.003002718565374522,0.9841818181220517,-0.0006047143217328738,-0.0006389288889936623,-0.0006631295587870498
1740.0,0.015828250295845416,-0.012115286458430668,1.022862119927704,-0.00010244006988983669,-0.0003905216911876284,0.0020885023302552905
1760.0,0.01551061580417194,-0.0015926209972093905,1.0007888832985583,0.000819422690285209,0.0013697761097561116,-0.002035636053691206
1780.0,-0.0011693982275815759,0.0057319637514530305,0.9987326359486706,0.0018348812260229885,0.001947059675109282,-0.000666789809528377
1800.0,-0.002097994503948491,-0.015127638442904335,0.998172570143661,-0.00010687028732187858,0.0007731810396626994,0.001593916503296092
1820.0,0.002571568293718932,0.014504358681787932,0.9858900152221283,-0.00024086447922531368,0.001808713467957806,-0.0001389807608911889
1840.0,-0.005574215534966612,0.0074623889481274155,1.0015983370531263,1.4254127146116155e-05,0.0005062326283854161,0.00036631585497189816
1860.0,0.013244616762506593,7.312179208714965e-05,1.0048095513005544,-0.0019869369612373496,-0.0007607823659815269,-0.0008771697631443797
1880.0,-0.006462249866066564,-0.013096394399184664,1.0044825238070862,0.0010901327553384035,-0.0011480936482563358,-0.0007496614460123696
1900.0,-0.0064586699876301905,-0.01276994892021027,0.9701409127161764,0.0020095287459640505,-0.00035172524541529973,-0.00043962159198417073
1920.0,0.014135487793460324,0.010118305624824485,0.963805440469512,-0.0006130582290952587,-0.00039955884294473707,-0.0003238182137967792
1940.0,-0.00553774652326124,-0.0021183764246085215,1.0316844296780578,0.0005672260672284736,-0.0013583245272045482,0.0006629099723084029
1960.0,-0.001201387615275033,-0.008298936530104935,0.9855353930059839,-0.0007840919751491523,0.001142997875654981,-0.0012463573860720949
1980.0,0.0012893817174841398,0.0034687059513402265,0.9944437245201909,-0.00024391862311114203,-0.0012427778396334249,-0.0002815768487531264
