timestamp,ax,ay,az,gx,gy,gz
0.0,0.01384400160793588,-0.00035941465311739704,1.0042979658200857,0.0008089106365679168,-2.0116436287331277e-05,0.001208539259691896
20.0,0.0002932496642749168,0.003524653965236792,1.0087749959644352,0.0025299733078458027,0.0014702357435119064,0.00030711379244182085
40.0,-0.002557872326554752,-0.011273279525768506,1.0140086515250342,-0.0006190911572377197,-2.7672904892436e-05,0.00013551653810520167
60.0,-0.003987695363416046,0.0028707162375969913,0.9688390896211302,0.0008934152374681395,0.0005973996553443081,-0.00032694303962279013
80.0,0.009635990618905745,0.0036025602746191142,0.9822560874406551,0.001145131627294161,0.0011856416363908216,0.0009807229335071748
100.0,0.008700755873611314,0.007276715494781819,1.009934023477576,-0.000805855589838458,-0.001510721031289491,0.0015540685768993677
120.0,-0.001474898130745745,0.017326408602429545,1.025591430645093,-0.00037430814462647107,-0.0007399346146406256,-9.803291623360106e-05
140.0,-0.010452926346494243,0.0055590385822498435,0.9933136251046112,-0.0010525007640182144,-0.0007950325976325337,-0.0007164545600860889
160.0,0.0015036027859745649,0.0008880638465514543,0.9770677024183709,0.00010904831151049987,0.0010574225888035499,-0.0002816916963847049
180.0,-0.00893941637402755,-0.005821808601235548,1.0400070444349472,0.0007785183254799371,-0.0014939171748994168,-0.0002896306454877695
200.0,0.0028757114264545114,0.005693132584468391,0.9575207537261768,0.0016410324706799776,0.00019131372651647104,0.001152064954175205
220.0,-0.0010493772702229803,0.0006155139093926491,1.0295356246019927,-0.0004968886263042893,-0.000508652932812273,-0.001615024591005837
240.0,-0.0022261944979700544,-0.0018323122294469523,0.976191716310042,0.0009431394162482914,-0.0008521320970251365,-0.00018189765112381842
260.0,-0.005262534703592408,0.008386808400642124,1.027344718675845,-0.0014068850386785925,-0.0006051199140489514,-0.0014841241555051466
280.0,0.00209175757392898,0.005569832375161022,0.9932295524333355,-0.0014931679891670483,0.0004378605487901136,0.0001685826271669944
300.0,0.00026025166677304327,-0.008436017648840301,0.9547488953608942,0.0006838233885174395,-0.0011530358696530294,0.001356533870870314
320.0,0.012040768807811908,-0.00993432387941654,1.0350882226892146,0.001627645997309787,-0.00024710847236733747,-0.0015911664190413459
340.0,-0.004438213876769168,-0.0042526216887564154,1.02080900073064,-2.515725657130482e-05,4.320321159559945e-05,0.000247116189972738
360.0,-0.006715750842122455,0.0037022535644300274,1.0311799180165002,0.0010233109931750736,0.0009013567130033797,0.0005999258739348748
380.0,-0.018136355876538477,-0.0025740985806363527,1.0101822618434861,-0.0016502396887886181,-0.0005735143288132452,0.0003747369664439477
400.0,-0.01771680773979539,0.008836458191129255,0.9556349099857111,0.0005379250450843164,0.0005395999516595459,0.0006879160961280192
420.0,0.0005558244463864378,-0.00017563294264677284,1.005570055650681,-0.0008019749359734515,-0.0002336469122773,0.0021859646008082984
440.0,0.005798255267081241,-0.0019076047768197702,1.0119746855374847,-0.0012356083082876931,-0.00111794761719164,-0.0018200279067553833
460.0,-0.012728891794290032,0.008076673514373831,1.0087076448339285,7.737245961606974e-05,0.0006359882128920853,0.0007035541290533799
480.0,-0.005296794328201736,-0.0020246069877550388,0.9907027334594961,8.652860516360992e-05,0.0008990928891714198,0.00011122775798179012
500.0,0.004720683126039162,0.011430858010601452,0.9997833812546979,-0.0007251160031966329,-0.00038611032886058205,-0.00029079962923448527
520.0,-0.003645520916464976,0.0007087908112347022,0.9750581758594015,-0.0008517298969056787,-0.00228640022797492,-0.00034144581250946483
540.0,-0.011396138464485363,0.013531333087287154,0.9793700903300276,-0.0006922450513966041,-0.001579197315684653,-0.0003338389525480312
560.0,0.0019609033485727206,-0.006910149213828621,1.0199662276686905,0.0007796701753569394,-0.0003546600282617825,0.0002390494802095254
580.0,-0.0055007376289838185,-0.004075975434568468,0.996136263454765,0.0006820237433316395,0.0008994868843864503,-0.00094211525852617
600.0,-0.0035321865050117755,0.014704131954235927,1.006175747490613,0.0006306172645880634,0.0019193122226626171,2.4335876548666403e-06
620.0,-0.010850132659150977,0.0030097214066691588,1.0183039770828843,0.00022121303519854202,-5.823816600917521e-05,-0.0019624932648327344
640.0,0.0048219514471221445,-0.002313048229621968,0.988447895640649,-0.0020863998355423216,-0.0003427482137047702,0.0006727268064047247
660.0,0.013505048086315672,-0.008328074317815763,1.0315584958609902,6.62538277078036e-05,-0.0003900930103022998,-0.00031263414995406994
680.0,-0.0004448086191676059,0.001953899176532801,0.9919439818768344,-0.0015651137924647892,-0.0003125430513180058,0.000640554732918179
700.0,0.00872692639735158,0.005850276043879026,1.0033744414429553,0.0010894204520914448,-0.0001960542142800742,0.0005222105337591844
720.0,0.008940017581700679,0.01102921154426893,0.9934075488158041,0.0016509240279264472,2.3709180420327125e-05,-0.0008938447752304167
740.0,-0.002332592874400012,0.01407448439309019,1.0114465552978624,0.00045991230161280725,0.00010027497602427518,-0.0010962780951474327
760.0,-0.0025066218655116226,0.010915590865530242,1.0158211245386484,0.0020824378448236007,-0.00022842934894698607,-0.0005203800145002319
780.0,-0.0010625015368306945,-0.0007383128968480439,1.0076047892443154,-0.00017997216538412299,0.0006457582414064946,0.0008997937638933687
800.0,-0.034751461263342664,0.008543078674898104,0.9893680899495676,0.0007019672648014488,-0.00035960509480140385,0.0006173543331716732
820.0,0.0007920843752180986,-0.010763762658932623,1.0265838546399377,-0.0008841459137499221,-0.0005087153660022436,9.095725725416253e-05
840.0,0.007598950523829366,0.0023052540261585784,1.0148363831036928,-0.0005664557993804605,0.0004991196597291647,-0.0009110959988940753
860.0,0.018753774074614895,0.005874203860821205,1.017762042355142,-0.000914472270843719,0.0006158760810835498,0.0005971415115008336
880.0,-0.009374673425313392,-0.005243293207458874,0.9905791089599627,0.0006850194099753377,-0.0012776354035995633,-0.0003351388929482888
900.0,-0.009130726813471499,0.024098809487395158,1.0196225348004722,0.00010624938699277708,4.5091957205332554e-05,-0.00038817326776531433
920.0,0.014227361499525049,0.012469891720293731,1.0073895732726683,-0.00040653700958873036,6.03875515092575e-05,7.526992006548943e-06
940.0,0.00502342668580688,0.009178453419558695,0.9913766298687047,0.00011110731482419402,0.0002458564229515359,0.00015705941402879562
960.0,0.002365512230890449,-0.0056458812780653045,1.0044665891142481,-0.00219060944763282,0.0015915165522082705,-0.0009724643875517058
980.0,0.008772128504590032,0.005768456172711984,0.9702192869662204,8.043629268475675e-05,-0.00032901620499523244,9.87097793826376e-05
1000.0,0.02652923052755604,0.01157420496290607,0.9726979674196283,-0.00043329439717759027,0.0004472879596961931,0.0003453042110304498
1020.0,-0.004571217750996723,-0.0011604195530600348,1.0265653837163997,0.00016110457354251637,0.0005289694228081039,-0.00018678823701277474
1040.0,-0.007907379198798744,0.008060526658698884,0.9824467760824773,0.000448162241261162,0.0012098234026267191,0.0008245638474738562
1060.0,-0.0018133230249171525,-0.005134448655698913,1.0039570078393891,-0.00034554503111319936,-0.0008508466147255932,-0.0010068842020362395
1080.0,-0.0036648340016685356,0.016894059456982274,0.969850480367515,-7.535551003654636e-05,-0.0002974827719298923,0.001592200327556253
1100.0,0.0005993523974552565,-0.005333278127855292,0.9812299670586258,8.876080493110776e-06,-0.0008801740754726863,-0.0016356090852436976
1120.0,-0.013391795720487428,-0.008439635682864275,1.0258264601153866,0.0008207707021287587,-0.0007481141090526114,-0.0005796171420959564
1140.0,0.004237663986483043,0.0012633005419361405,1.015472777753625,0.00019952848622072322,0.0006444145450773905,0.0006986479955796767
1160.0,0.006368686593332027,-0.0004160442344081617,1.0137714671091729,-0.0007835096175650263,-0.003003317355646618,-0.000897552983962351
1180.0,6.906010786503805e-05,-0.007564668283815353,0.9757223705642063,-0.0004681478975165863,-0.00026189295485677243,-0.0011352157134059664
1200.0,-0.007637975375755432,0.010943416205045773,0.9890154496669803,-0.0007243844785987292,0.0003436345924482629,0.0005009397822575147
1220.0,-0.013502425486449735,0.014472105383211387,0.9901907547188867,1.0358831291838151e-05,-0.00032804428185154774,0.0022733581020155593
1240.0,0.0010618124184088118,-0.009901896125443397,1.019563329231604,0.0008696095297473907,0.0014615730246318583,0.0007700477165074812
1260.0,-0.006203738679241392,0.004042479149962244,1.0029228368627,0.0013358754327514656,-0.0007139705515759674,0.0012685891832382688
1280.0,-0.008945611588824995,0.0050559204118358,1.0057157786757125,0.0009446085191563479,-0.0010266556489193612,0.000911356871109469
1300.0,0.007022887744862133,-0.012587486873355699,1.0057249862211401,0.0008204686748225063,-0.00011517007290450758,-0.0006155601007977676
1320.0,0.007871270596025371,0.007980932466494249,1.0073071757293393,-0.0008519707084768618,0.0015968657815341007,-1.7116247827773782e-05
1340.0,0.00651095708247611,0.001170779339078286,0.9732486597892519,0.0013367811202217759,-0.0004092372458942294,0.0003512971915775235
1360.0,-0.00486375546144179,-0.007717771904467783,1.0159777058602586,0.0007254319658211332,-0.001127403535312887,-0.000958083428768145
1380.0,-0.004959237513763332,-0.004232257602712647,1.0353260442910968,-0.0009959153592383808,-0.0002975258912905935,-0.0003838266104308237
1400.0,0.016663439502868308,0.01353527847640727,1.023391634733717,0.00014355441793953677,-0.00010281813667470978,-0.001171698039190475
1420.0,0.014001840719785358,-0.009212862822536695,1.0101905003759466,-0.0008155976800740883,0.00023885143130668443,-0.00011873310724842519
1440.0,-0.010916845225051503,0.0032281059385678356,0.9916566907932849,-0.0003858140623858778,-0.0006212541921942928,0.0003568143308201692
1460.0,0.0029075912133841504,-0.0009155491953998903,0.9944664194596026,0.0006656047747810925,-0.0016799552548909522,0.0002161117468944111
1480.0,-0.0179243121500366,-0.008154125673084139,1.0092145440637623,0.000596307420548495,-0.0005417539726021965,-3.70099983341575e-05
1500.0,-0.0054053036064631455,-0.018122097110568215,1.0001633574343598,0.0007706846157717435,0.0006838086179438147,-0.0004942971805764599
1520.0,-0.004441109370399123,0.022190952225205833,1.0009276882444509,-0.001481833467048685,-0.0002055950924592614,0.0010908321631391907
1540.0,-0.0067232237104548325,0.000307026562558895,0.9832358730281802,-0.0001680738485692881,-5.714621739167934e-05,0.0018833692180468642
1560.0,-0.00018510112375825128,-0.00954325951778309,0.9900480744699008,0.0005244077296422499,0.0015607391626098986,-0.0002012484365837348
1580.0,0.008142338806125679,0.00476943367842061,1.0129828661621845,4.717702709013383e-05,-0.001759976922021293,-0.0005791053115314105
1600.0,0.011114435297645029,-0.006676087561054966,0.982573044853543,7.641801381206826e-05,0.0006197305008739642,0.0005103671905025367
1620.0,-0.012068354413066612,-0.002489698542820805,0.9872288929614297,-2.696524264112722e-05,-0.00016288078156124857,-0.0014014782601896197
1640.0,0.015150154066155093,0.0005880369500764381,1.0190467871228748,0.00013643002088675388,-0.00036413006429096936,-3.211016099742466e-05
1660.0,-0.013937077424768683,-0.005307673791968046,0.9799912436291885,0.001050939495211846,0.0007712785532525989,-0.000565233561817495
1680.0,-0.008836323957040182,0.00591589834420498,1.0047653068785711,-0.0005016698358193067,0.0004968993255141173,-0.0005547759619636395
1700.0,0.005616403748868448,-0.015093800028513953,1.0011907594128753,-0.0008350102851381681,0.0009131877059112895,-0.00027987942277741987
1720.0,-0.0009813891120917537,-0.017376081691619527,1.0254376601735584,-0.00039757648561066444,-0.0003255358532899291,-0.0010724435223706803
1740.0,-7.231416194868863e-05,0.015309505878604229,1.0075578038561013,-0.0006415446419039398,-0.00034036236117963083,0.0009564622051463385
1760.0,0.003083415465763951,0.0221250058971684,0.9585555537462745,-0.0020809106919410765,-5.9248921474453435e-05,3.9533943083299885e-05
1780.0,-0.007442681373361054,0.014028111208113899,0.9526089919871703,0.00028854787736919894,-0.0002893853940059784,-0.0011374019629984877
1800.0,-0.0062385482395985415,0.007161722872945558,1.0095050091707924,0.0010110914873535533,-0.0005451259171156947,-0.0012475121295162138
1820.0,-0.008242303412142674,-0.012776604442430284,1.0103089728427963,0.0005568626843832278,-1.3158537114970984e-05,0.0015451090423475155
1840.0,-0.006985160007112981,-0.017330841039465975,0.9865470345029168,-0.0003070023932508648,-0.00029954310265431326,0.0006159498933346845
1860.0,0.01454642776352489,-0.015058155139521329,0.9890737609558685,8.193392289626924e-05,0.001256746707120717,-0.0009199159340622639
1880.0,-0.016834625287391984,-0.010584052896411643,1.0068138160044993,-0.00012950625103069083,0.001260529957812936,0.0009717517425729208
1900.0,-0.015060561627295528,0.015046168143622562,0.9815176290009204,0.0008045370098732058,-0.001497469041665898,-0.000827052336120076
1920.0,-0.01939975110439845,0.00801859037023121,0.9897709675525498,0.0012242847133399422,-0.0008310963242784203,0.00040691157084736263
1940.0,0.014674426338544667,0.006027040451390959,0.9934381292007434,-0.0009271906121653221,9.803973486343483e-05,-0.0014469952499905126
1960.0,0.008308417737074218,0.001978784908001631,0.9994300246770959,-0.001049407105519171,0.0009332011341477188,-0.0004801269055206557
1980.0,-0.012697839957492652,0.006734016467080588,1.0313900070514175,-0.00017796421993521413,0.0009609961411905121,0.0010098685211819844
