timestamp,ax,ay,az,gx,gy,gz
0.0,-0.017346464976830032,0.010787415191328076,0.9838863906694022,0.0007803907297330884,-0.00022971302092320036,-0.0016920906950774358
20.0,-0.005715601223202598,-0.01427525312651296,1.0050017340920243,0.0016157537880437246,0.0006988889650578622,0.002219492848428927
40.0,-0.00083323820827867,0.00823057830163542,0.9855538930161704,8.080845507187019e-06,0.0008490897377525862,-0.000851892563602445
60.0,-0.006312166163834609,-0.01843561451973352,1.0089093931052444,0.0015987870572488785,-0.0008678418606664512,0.0007555810583541233
80.0,0.00460061568559659,-0.023814868213756616,0.9892756278804088,-0.0009365041098138752,-0.0012344100633297007,0.0004385064081840808
100.0,0.017014888383264072,0.0020657385467763197,1.0088092679940517,-0.001426503552873859,-0.0006629074505615011,0.0004839581922749594
120.0,-0.016818127059691285,-0.00941828519486428,1.005510057082511,-5.1256444358518404e-05,0.00037017423350102545,-0.0008994312206375556
140.0,0.00606007456920382,0.0036870947115733767,1.0092543079643355,-0.0005534049616142067,-8.678483634159628e-05,0.002345850266437849
160.0,0.013673010285491647,-0.009260797927215066,0.9717076272203563,-0.0006753869353728428,0.001101454537970258,0.00023345016114425176
180.0,-0.005486206066769206,-0.007328569378912634,0.9894583968061034,0.0018565893567769722,7.205742093551154e-05,-0.000681633136508198
200.0,-0.0022677073804053803,-0.007778846729841339,1.0218034813950447,-0.0011062145455439213,0.0013599028175539456,-0.0011728642516911684
220.0,-0.008925693390483092,-0.0071382147720429915,1.0260265888997844,-0.0007566670462743579,0.0011722112295060505,-0.0017548087889812571
240.0,-0.012494124521764472,0.0006895308229136422,1.0010552999209292,-0.0006436621352542322,0.00023960040295003044,0.002550055686008351
260.0,0.012883990511439219,-0.0073598331032907836,1.0047983801796792,-0.0008066648668355708,-0.0015025947636500918,-0.0002299930721801302
280.0,0.021868470718822468,0.013648352698481024,0.9717089787196846,-0.0004016884212516846,0.0008934498190349758,0.0002570673336122591
300.0,-0.008758976769964077,-0.013446660363614908,1.001380095019038,0.000817284663794893,0.001424271709624243,0.001193254297366027
320.0,0.0038046756352112126,-0.002447371160853035,1.020250682741914,0.0010002165161977802,0.0008730795663139933,0.0020276190609889227
340.0,-0.011507243495547142,-0.005560945319751644,0.9939162847875979,-6.178823382972477e-05,-0.0005697839537862149,0.0023166721210020635
360.0,0.015943250039630763,-0.001857790076903792,1.0098926080047983,-0.0009263582261248798,-0.0009652671000384972,-0.00040589570973008425
380.0,0.007536022111415055,-0.004049833843289214,0.9619558616980688,0.0001792471781101407,0.00031629080654632766,-0.0019098243792053007
400.0,-0.011769938700626504,-0.0010084046426647594,0.9928643168909773,0.0006614964582779271,-0.00047119791884971807,9.437387735883786e-05
420.0,-0.006634482978144674,0.0037061121110012352,0.9763197319184106,0.0009562783339634871,0.0008382604664152165,0.0010745903221163128
440.0,-0.001789164274747734,-0.013390781437115439,1.0112747064358245,0.001581080888430151,0.0009707285343919358,-0.00042043966260852186
460.0,0.0009898461742693368,0.002504889839811022,1.0017594943272783,0.0002614620985096179,-2.7283977589989326e-05,-0.0011781126312534341
480.0,0.005859689548016236,-0.003829302478350158,0.9589686657007931,0.0011643143922311797,0.00038702880996492405,0.0006535397917119948
500.0,-0.00653171842789305,0.012974727235424335,1.0038876917285386,-0.0015879057181581021,6.66350182456089e-05,0.00026510329803934335
520.0,0.005441973822465048,-0.004894519677932547,1.0021808603905307,-0.0007344815071774148,-0.0009494632583105115,0.0009645633300604234
540.0,-0.012145379151505127,-0.009230854106919822,0.9929467413215218,-0.00012398335302090608,-0.0007510667353508721,-4.77858257800961e-05
560.0,0.007512047061786221,-0.0005683922198628518,1.021417291676948,0.0011509519653954926,-0.00028887814739952646,-0.0009360722656377474
580.0,0.004957020127030982,0.014717471098285091,1.0062767430656236,0.0006689259473898115,0.0007954910297585696,-0.0011086002131831616
600.0,-0.000782748817092571,-0.016300286007970895,0.9958842420357588,0.001462387490801514,0.0005149901739391101,0.0011354659686426804
620.0,0.01705449176271582,0.0026036365124237214,1.0134552368351835,-0.0002488508181781538,-0.0012034129227785524,-0.0004235435778907988
640.0,-0.006505044071396226,-0.010332325696713551,0.9830095560652614,0.0009301905626386528,-0.0017718499559967087,-0.001624033216705128
660.0,-0.013706047454318604,-0.01209103673065674,0.9942221028893218,-0.001995786799571425,-0.00014494179616481522,0.00016780878397201047
680.0,-0.007700228461705855,-0.006135241643510737,0.9904906132980288,-0.0003354596236522634,0.0007143566703278226,0.0003677461471136592
700.0,0.007975870548094063,0.0022508136285954855,0.9791084154405199,-0.0011939169617967286,0.0015613237924860062,-0.0029874469762105524
720.0,0.005393319928922467,-0.008893153003268577,0.9980244397274828,-0.0010380799777052084,0.0013514092184792508,0.0003477687457592376
740.0,0.007206222593708859,-0.016514368974858588,1.0073460720133502,-0.00045708562810755623,0.00010823849745462775,0.0007233085295495424
760.0,-0.011561856701125764,0.013030189414573318,0.9796523517076177,-0.0006497888203315505,-0.0011882969164078916,-0.0010442868624803805
780.0,-0.02536740270610666,0.03271948029270355,1.0067148628087454,0.0018906587028744688,0.001893016763266368,0.0013304621011406344
800.0,0.009086190287872815,0.011399284506723886,1.0081101647065345,-0.000940470022945613,0.0006871584000297015,-0.0020982909045862926
820.0,-0.012959079415259396,0.012458010950040734,0.9976953903205447,-0.0010498417573952335,-0.001597384130998811,-0.0013027144689132786
840.0,0.012720865913303618,0.0176046762539264,0.964018723730108,0.0009678566077406062,-0.000437207567225101,-0.0005901954731481633
860.0,-0.005998318485090068,-1.0917685435897884e-05,1.0380486993414066,-0.000595670742102639,-0.0007200311126826915,0.00045266809634418077
880.0,0.0023825608090588548,0.017316474500625772,0.9996677687142363,-0.0003720834557845152,0.00026461906070412636,9.953764174326066e-05
900.0,-0.0030871670120640976,0.007125491333005822,0.990074076899508,0.0007804432863047942,0.0013969013283425826,0.0011114706152976848
920.0,-0.0030500353604529778,0.008642810376208798,1.010521199143331,-0.0006720109876714957,-4.561642251781693e-05,-0.0010262157561926307
940.0,-0.008611653356817907,0.01217221150053265,1.0076928859316476,-0.0009356458468855058,6.810440328900198e-05,0.0005671013088879023
960.0,0.004593106639428071,0.00844021954842505,1.0043869322479846,0.00044894201963607995,-5.51698966006985e-05,0.00022120541284111913
980.0,0.01308764607832915,0.005968396422019387,1.0078576856316614,0.00032176172352300165,0.0010782395966938063,-0.0013970730631106842
1000.0,-0.0010524262815244485,0.01620032864007668,1.042360331246281,0.0013814644840126435,-0.0008644244804076688,-0.00022623598015742504
1020.0,-0.008045882710411675,-0.005561643514704023,0.9963166576431628,-0.00039616471959944244,0.0009956167223741405,0.0005272056763878494
1040.0,0.015460518019918332,0.005126939595903668,0.999933239916094,-0.0007945674057000003,0.0017986693473780258,-0.00019253533976927773
1060.0,0.009590055620183384,-0.00013332246922396503,1.0044803697979927,0.00042438766323005717,-0.00024748295412932897,-0.00012412648578507122
1080.0,-0.008148423853854933,-0.0019175885337801236,0.9852194690068259,-0.0018620240509542748,-0.0004621891009408486,-0.0006033614326234203
1100.0,0.009442452261025719,-0.007796408464225304,0.9677023405212068,-0.0017061421615611745,6.196848098413096e-05,-6.0857575930050426e-05
1120.0,-0.01063067101630673,-0.016257319900396437,1.0101984281002854,0.0006309426568041147,0.0004256782920629657,-7.145293591682786e-05
1140.0,0.00459984759780878,0.002875746255712117,1.0177917164504948,-0.0015020189196596548,0.00013396635714502388,0.000700595276175886
1160.0,0.005161797912938095,0.012266955743956658,0.9962618938239631,0.0014100790335180493,-0.0006800849644963936,-0.00023258582525105846
1180.0,-0.012889932921459098,0.011289416568855602,0.9759947198270089,-0.0013443935124530478,0.001721962881598864,-0.0010218260124679373
1200.0,-0.0010310243922563276,-0.00027951530279217885,0.9622797673410204,-0.0005426472276644359,-0.00011415566090139545,-8.759235902388931e-05
1220.0,-0.005297527767072859,0.012134128524739994,1.0370973268272938,0.000860826370363953,8.243836379950366e-05,0.0007973424393263946
1240.0,0.001836102565534545,-0.013142601970964706,1.0038918985807608,-0.00037332121998845933,0.001228335885849681,-0.0011602303288697107
1260.0,0.009679033303491166,-0.005295312239871508,0.9809540829151768,-0.0004974716988457915,-0.0018213763810578875,0.0008990932666368611
1280.0,0.004185704658817805,0.008828342285499786,1.0000242238613795,-0.000279662927541594,-0.0006148062951823638,-0.0010528757066248895
1300.0,0.00784771252994104,0.0004607945918049931,1.0286705802234326,-0.00024516501991430733,-4.283059555392036e-05,0.0003316021846292419
1320.0,0.013894648261268811,-0.012879090050368327,1.03370707670642,0.0003059391376757665,-0.0010804079944515483,0.00018170241417338485
1340.0,0.01092751200764873,-0.011873834287252055,1.0472156519307936,-0.0013112754034599592,-0.0016100301211062892,-0.00021195192555710355
1360.0,-0.008828157891007918,0.009967528831954729,1.0005293015537142,0.0016776880008762172,0.0015938484735775987,-0.0002533308799222838
1380.0,0.004252529216162109,-0.006272643371186453,1.0259998140106354,0.00030218183326082167,0.00020533490814437694,-0.00026991466127504834
1400.0,0.01668483259279596,-0.0005215426219388008,0.9605581427862985,0.00010991930970044881,-0.0003207494338321313,0.0015104785775655056
1420.0,-0.0032850448794192934,0.004230289920105827,1.0159871858307916,0.00031261082491981004,-0.0006386923540580748,-0.00039074301799434113
1440.0,-0.007080236397799813,-0.0037593398157540164,1.0304204591447899,-0.00015066941683195822,-0.0006662194320797331,-0.0012469681695805599
1460.0,0.004409105070983309,0.0036316693303893506,0.9811037439169583,0.0010646796622918377,-0.0007801054365397728,0.00018612193473096288
1480.0,-0.0040691996520534615,0.017622221775745003,1.0226635384493474,-0.001031066784325427,0.0007407142303906732,0.0009728804357649449
1500.0,0.02468987722634208,-0.0036699748331019784,0.9840787392482124,-0.0002812454145988533,-0.002094954254578963,-0.001664537182738429
1520.0,-0.005053748105802932,-0.027028378431534317,1.0137969659205024,-0.00153055846166932,0.0005701487998311483,-0.000785604562501343
1540.0,0.0063298133096752205,-0.0029503716184947483,1.0175604499933717,-0.0004914153733977401,-0.0014146500677307162,-0.0013692249573597193
1560.0,-0.0034698007300372914,-0.001564069644450545,1.0204766717259965,-0.0012691427171019772,-0.0007289494727245766,0.0009306836928065118
1580.0,0.005386947015864622,0.0005534224475570531,0.9946572585384132,-0.0008770343221860501,0.0013469851047134688,0.00036926385752818593
1600.0,0.010956221123151911,-0.0008327970746157127,0.9888336826857826,0.0012738469714028676,0.0015674564669461368,0.0006937598475216685
1620.0,0.004138789071067652,0.006047563169702251,0.9795499619304091,-0.0008976540037542271,-5.776247585325313e-05,0.000179531125795172
1640.0,0.005461871669057467,-0.012461853850229274,0.9650237612870087,-0.0010957855156677545,-0.0004582829361584338,0.0015854915196148718
1660.0,0.0011577362873348269,-0.005573257955377117,0.9975884686089325,0.0005291468881418515,-0.0009370363751037659,0.000470196006419433
1680.0,0.0025549792449714127,-0.0034255692780466637,0.9997550814460439,0.0015569340404433954,0.0008716821325990562,-0.00030724444783604323
1700.0,-0.015841075721740254,0.020988212492359628,0.9865533826173013,0.0023711892074825282,-3.535247222721867e-05,0.0008209806441191576
1720.0,0.01862028277483512,0.014733205406533978,1.0100025808603095,2.724925330689706e-05,0.00013605575179176385,6.0965857230108644e-05
1740.0,0.008962642323245475,0.013598136118176212,1.0037391240623703,0.001490606096732246,-0.0007641156385482944,-0.0008223158000739022
1760.0,0.0048259832999808915,0.006539730066498755,1.0143087114036002,0.0007356118884322608,0.001739065654023211,-0.0008894877402940949
1780.0,-0.008330021343559441,-0.008597303941476953,0.987868751390631,6.340079718957674e-05,-0.0003936066270791935,0.0009435592803901509
1800.0,0.002254558554867824,0.005577466936715965,0.9800800493001582,-0.0001558424034598078,0.0008339558399300111,0.0005161037725390936
1820.0,0.0028137215144455074,0.002172646877004865,0.9834424353918325,0.00035319139614770724,-0.0014656699413966234,0.0007401815334503738
1840.0,0.0013240256795491224,0.009351800928467128,0.9695738788362597,-0.0004488474590028048,0.001203208532858694,0.0005555313329734162
1860.0,0.0017510151367152408,-0.0032286686762164375,0.9937741087858467,-0.0008928882588117389,-2.8566709504159814e-05,-9.179236748893283e-05
1880.0,-0.0027003957236159683,-0.00013921351686801674,0.9745579126192258,0.0006601588277020315,-0.0011138297617440788,-0.0005719406964035073
1900.0,0.006493838435693264,0.006883487616938465,0.992438156640382,-5.5804783294075465e-05,-0.0016568251591443275,6.631848305006822e-05
1920.0,-0.008108361415843068,-0.007466935640843315,0.9906806156234814,0.0006691799341765226,0.0001645290233146644,-0.00029978727942107155
1940.0,-0.009552583123952355,0.008922031053743076,1.0154603032070666,0.0012388231689802643,0.001174564752555996,-0.00020093992464124906
1960.0,-0.015780569805530168,-0.003032206997744244,0.9896101527918474,-0.0010921825782058575,-6.742824776874467e-06,-0.0011629972390778736
1980.0,-0.003889686681305679,-0.0005215345731581332,1.0388001631090822,-0.0013382006615969145,-0.0005887846035001921,-0.0008689592465563047
