timestamp,ax,ay,az,gx,gy,gz
0.0,0.010716065707935265,-0.0007618145649006593,0.9969148955578158,0.000723156763419952,-0.0006267150926209794,-0.0006466970255386697
20.0,0.00528310494277077,0.0036547328761823332,1.0031902771650056,-0.0010403678389732597,0.000636244518464339,0.0015886454979628878
40.0,0.0020972831751539145,-0.007776889659792474,0.9798379112320843,-0.0012009222768038167,-0.0003637834844509871,-0.0007779133387549927
60.0,0.014931503876230559,0.010521028779224317,0.9843942014982172,0.0001335916668750853,-0.0012542530228817639,0.0007708612624635314
80.0,-0.008539910596580795,0.003288184243541403,1.0159134133301466,0.00048240980084846463,0.0012334234843802668,0.0006834547822436195
100.0,0.005244995095720422,0.002475084894649638,1.0108438629061782,-0.0023953159889105974,0.0009649260451256849,-0.0007231045230303857
120.0,-0.01593912572603852,0.00057773760203735,1.0011739073348862,-9.573972942640292e-05,0.00030318943837605284,0.0009755856837958863
140.0,-0.0033890647325197686,0.003631234621300936,0.9991072145454557,0.00042638193452087505,-0.0011377229124773102,-0.00028476679045096287
160.0,0.0123591395407474,-0.012613441974225696,0.9820160435824961,0.0009457805204158754,0.00030411459316166586,0.00021788467607141785
180.0,0.003655957034317032,-0.01347118745734365,0.9991051746012868,-0.0005974804188532982,0.00012416746875821031,-0.00035710867125527177
200.0,0.005268687111918981,-0.012637320482776429,0.9821427746611859,0.0005401431919028085,-0.0009240667373557709,-0.00026040398646825716
220.0,-0.007235135036643565,0.009639025692768062,0.9540878622572426,-0.0007338237386747608,-0.0006522983921587468,0.0007048186803728879
240.0,-0.014151175173694462,0.013459820255343796,0.9728670607020047,-0.00135226305208844,-0.0010709021023862187,0.0007049706113143962
260.0,0.014420678224228945,-0.006088412083628554,0.9863972494447487,-0.001335508083226706,-0.0016162762433663657,0.00045361902477251796
280.0,-0.0057623958932741534,-0.0080201050215525,0.9702670985139054,-0.001209033083174122,0.00011405401076406607,0.001451184410775757
300.0,-0.009777914890528561,0.01113747548742605,1.0021400297997192,0.00017529542347101846,0.0004891684202807243,0.00019653679104670858
320.0,-0.014106620421157292,0.01100573693760641,1.004140409314831,-0.0003112389555989573,0.001160661577058195,-0.00029034412033619256
340.0,0.016332790956735413,0.004928858924025056,1.0362481003716342,-0.000498803459890581,0.0008995629792535277,0.00083363021623768
360.0,-0.009385908710214361,-0.0020354607464918247,0.9796894077487361,0.0016456484760138375,-0.00029889847917181136,4.8779545077639005e-05
380.0,0.00480729134682904,0.022788499972915145,0.9998814745589963,0.0023680596642584573,0.00016540693955526762,0.00036250997035152283
400.0,-0.0020979508458333655,0.00815010796197114,1.0162671906029908,0.0004493347629470501,0.0004105331796094157,0.0004999349596728781
420.0,-0.018129467485904213,-0.005851671808543277,1.0278387946030516,0.000462693494443801,0.0012707000976568206,0.00041477889961878727
440.0,-0.006046435288801955,0.005596432478690252,0.9930862463367913,-8.022579888723928e-05,0.0003538708113394212,-0.0008004593781235053
460.0,0.008105029456259514,-0.004712536899572006,1.00345721719564,-0.00043544897204321557,-0.0015445013494963015,0.000363692251424208
480.0,-0.01047714747239423,0.010562486458440063,0.9701192313347358,-0.000168476155969104,0.0012454573403581266,-0.0010311772598227795
500.0,0.021445241615863156,0.006712606171347449,1.0089856798394679,-0.0006225131676024761,0.0006998170777346028,-0.0005967246479183848
520.0,-0.0019413306720867025,0.008470199568344784,1.0244470832816046,0.0017731017180069556,-0.001150483061204279,0.0007127690199144824
540.0,0.007860625233511585,-0.011051193972598627,0.9814494392283396,-0.0007110581929354461,-0.0005440261878974805,0.00017614412116634433
560.0,0.0061245650529030025,0.00038100884279531076,0.9362471018381537,-0.0014141170447808894,0.001256695927543649,0.0012838812071564053
580.0,-0.026464513343046538,0.03367971169958225,1.0253061458299553,0.002606949209955372,-0.0012185270776664914,0.00022204579861525165
600.0,0.010284041639235901,-0.009922792822765134,1.034613234657838,0.0010926119390070735,1.818462956851814e-05,-0.0002065848385665914
620.0,-0.004115285981095964,0.011876739258097496,0.9925395188989695,0.0009941268879581373,0.0006343612126238267,0.0002706207909468235
640.0,0.011409838355863318,-0.013579316816874035,1.0092470439047638,-0.00011715221815807154,0.0003545886424873285,0.0008056485030124872
660.0,-0.009387484249756519,-0.02089313956938429,0.9822576901001251,-0.001009567415083124,-0.0009533353435954001,-0.0010525435528832576
680.0,-0.007069387205779518,-0.003409394529622373,0.988069173314395,-0.0006739342512463214,-0.00014006304052612177,-0.0006318561090506573
700.0,0.00852790506648607,-0.014000412471884183,0.9792084053910665,0.0006311815141710452,0.0018023824668290623,-0.0007410996926363657
720.0,-0.0007776588305963421,0.006518635921564363,1.0125622492606159,-1.2666818014903516e-05,-0.0009691029364863505,-0.0007221121395026321
740.0,-0.005472106807994706,0.004773907008029074,1.0161152394644348,-0.0007795872331519217,-0.0006538135117278448,-0.0010343969892714785
760.0,-0.007260036845047439,-0.002595302492077156,1.006798518181607,0.0014163102049402187,0.0001993945160868397,0.0006526976674294423
780.0,0.005216111302895707,0.0021684627977129243,0.9844225578501212,-0.0007007171367631094,0.0001551646884893534,-0.0018032608207366227
800.0,0.005960949634713017,-0.0016559565187646648,1.044684424012989,0.0014691915165630377,-0.0015037326230200982,-0.0009745876164298117
820.0,-0.0045262461503944775,-0.00046877387923562215,0.9835710653670215,0.0006155195685261153,0.00031521238510374294,0.0013152013166579748
840.0,0.008482258534017875,0.0064442227942434595,1.018665712051106,0.0001073278127495094,-0.0023984810964801737,0.001206738712778183
860.0,-0.0015898692875200538,-0.013584192717654361,0.9945152383879414,0.00011583227829821886,0.0003912682436697138,-0.0012921168686841622
880.0,0.014266195987107322,0.0136863666062116,1.0044076441042757,2.001447883329135e-05,4.204933615138137e-05,0.0015531603103281794
900.0,-0.010384835798188382,-0.010550155682052432,1.0373656541407206,0.0011035348227154984,-0.00026683735171816525,0.002475000634816252
920.0,-0.009451117833791886,-0.008186033500435994,0.98717690475548,-0.0010080557053549102,-5.5625277720646376e-05,-0.00027906218578114075
940.0,-0.011622175393359193,0.006054521150982709,1.0564662142973866,0.0011266686893171693,-0.0001305714892499666,0.000754018627646673
960.0,0.016373330851982053,-0.00048357916805385386,0.9771246605402549,4.499617994781737e-05,0.0005456883403304367,-0.0006661970866315102
980.0,0.011362399077991496,0.003003197093303661,1.007208352599487,-0.0009908852252401438,-5.217255859435838e-05,0.0011368252340787047
1000.0,0.007349567562030005,-0.033236545487867544,0.977356648012935,0.00027592691147478824,-4.393763178411434e-05,0.00067542602267428
1020.0,0.0059175361471201695,0.0009663531059146212,0.9464210408159095,-0.0016856052334586502,0.0005356313291754428,-0.0008791006246135323
1040.0,-0.0015475774725681982,0.004230192518532979,0.9898451002406701,-0.00032098251941192394,5.3897545190354495e-06,-0.0008046623274517514
1060.0,-0.0041336874457574635,-0.014560637892367561,0.9904796010197329,1.2553430719816304e-05,-0.0004883604897817469,0.0004481206228801758
1080.0,-0.0031915571469854076,0.010911671975275292,0.9609054233818756,0.0007936085079478449,-0.000897115937881888,-0.00035912254714945153
1100.0,0.0009799128728116015,-0.012447690604802957,1.005680211163417,0.0006964001621538009,0.00042360540075522156,0.0004246321763146041
1120.0,-0.02057767716378325,-0.007539891110459224,0.9875858684203154,-0.0007315877008713958,0.00031974686189843195,0.00018898802095887576
1140.0,-0.013877823658691463,-0.0074550351380685085,0.993034602946631,-0.002170431785312742,0.0010914787973031713,-0.0003425012099608161
1160.0,-0.001088722822221076,0.008616848412884747,0.9850518941541716,-0.0011821469839485526,0.0007137058726214761,-0.00023686220952072709
1180.0,-0.0008888292476735014,0.002816296666127116,1.0149163929075287,-0.00022033683677832964,0.0008502316133470804,0.0006268895281468705
1200.0,0.007172243740951662,0.006319113818308109,1.0027918347385805,-0.00015756734354903065,-0.00046817492703027385,0.000836561259644728
1220.0,0.0027182676603535465,-0.005287113881075685,1.0034054942601247,-0.0003604964223294274,0.0004976744033552932,-0.00010777005665068381
1240.0,0.0146782585261545,-0.009856239595290249,0.9927568734133695,-0.0005448838009644561,0.0010004911746437338,0.0013730094564501827
1260.0,-0.008224691330606444,-0.0030811061851493873,0.9970080140858956,-0.0003844800736965595,-0.0007392892075892428,0.0011798747479838858
1280.0,-0.005679096409089621,0.01128973102146735,1.0303942549124774,0.0001588482612649835,-0.0003213661519543969,0.0008435879975997071
1300.0,0.0006055625946332408,-0.01866277554377845,1.021988353497416,-7.581729946681957e-05,9.296436442129193e-05,-0.00017011818900665893
1320.0,-0.012077508067561001,0.010161964285889849,1.0209659606167105,-0.0014336240182376433,0.002096677149352396,0.0008676994040254889
1340.0,-0.012077951374650666,0.0003494618099578483,0.9971341937334967,0.0019944247998885008,-0.0011571997950342741,-0.0009883380607042134
1360.0,-0.009618115790086227,-0.01240730334453073,0.9923020691334961,0.0012146695717341481,-0.0012815048914326184,0.00024147188478457714
1380.0,-0.014192482032252953,-0.0032766710748760803,1.047956998600393,0.002450429846363934,8.285220541400437e-05,0.000939793476480359
1400.0,-0.0013926462678975605,0.004214234909417195,0.997976174660029,-0.001247895412322566,-0.001484845893512605,0.0014687022303041747
1420.0,-0.010450703340336232,0.003473416552260707,1.0046020454232043,-0.0001730458059155596,0.0009894802480668716,0.0009304535798802054
1440.0,0.011444589957877692,-0.00557725554133333,1.0111303704017864,0.00033043865071169764,0.0008305486232984792,-2.634002151769353e-05
1460.0,0.014756493907208885,-0.0027831950095064716,1.0041494621955587,0.0010073555130342927,0.0006368864660181256,-0.0021302892805463475
1480.0,0.01654222854746616,0.009902818083566451,0.9943732654797889,0.0011483762085695154,0.00019663148946511873,-0.00013765851073603788
1500.0,0.00787308592694929,0.0019436956618188834,0.9849266186350885,-0.0004671259106950591,-0.0015164639761634459,0.00020948252430087787
1520.0,-0.0034482012643116517,0.009657842060850746,0.9798960264572879,0.00042012212767163627,-0.0006022687296550721,-0.00015052016873943482
1540.0,-0.0004988157895117445,-0.005154662882152451,0.9713546404974098,-0.0004254065168504112,-0.001306997690718568,-0.0005794779068980786
1560.0,-0.013859800754532954,-0.017794803111891223,0.9988824251321919,1.1284956093101703e-05,0.001093922621014835,-0.00033361587906923385
1580.0,-0.01725826518554833,0.0034329468610773627,1.0000410042885055,0.00020003600782635592,0.001294737239857048,-0.0005295411503245384
1600.0,-0.01104691466039897,-0.009040903370131642,0.9943920968702804,8.385425456424426e-05,-0.0015136022134754504,-0.0003595556931728996
1620.0,0.011758020389345467,-0.01563448763998854,1.0007093226513029,0.00035075832805045654,0.0002124982950800946,0.0020829315112975855
1640.0,-0.016573425861737597,-0.011620229838064471,1.017719027666191,0.0004028732854695499,0.0011220120002670426,0.0009522993039389044
1660.0,-0.004083153134413868,4.6553901402973164e-05,1.0143329104395553,-0.000738438204314161,-0.0006481493112691169,0.0018686724121626042
1680.0,-0.019941069347112525,-0.0003063814418188301,1.0539422324277046,-0.0002935353267472082,0.0010607024453754596,0.0015463756562550785
1700.0,-7.483653599497658e-05,-0.0004025609862788278,1.0077266607357205,-0.00019590948262744262,4.0541278168776026e-07,0.000992220338458982
1720.0,0.012236702612087565,0.006819193583147995,1.027404136737803,-0.0011950120830049149,-0.0013291191187330114,0.001998672012296035
1740.0,-0.005237331139918377,-0.0032340661777012533,0.9968027757244632,1.1237472729554602e-05,0.0015735535984976736,0.0005572609445336092
1760.0,0.011228842319156267,-0.0015025496829643168,1.014446211300995,0.0010384574571078494,0.0006092505598685846,0.0015954516119204174
1780.0,0.00617386884713381,-0.005280261038628861,0.9894914805642403,0.0009441485594479733,0.0006898901556351366,0.00010071662332941071
1800.0,0.005514458417038907,-0.0037994254863168223,0.9985582929894957,-0.0008330091109539526,-0.0013170214752363533,5.262318032569942e-05
1820.0,-0.0187383734109172,0.012166233310937342,0.9496064651885796,0.00043926359273140954,-0.0002629937955055715,-0.0001711269580469876
1840.0,0.0028715550801928567,-0.006414613005031959,0.9852909927691157,-0.0004121857224495973,3.925637361294432e-05,0.0011014289205967746
1860.0,-0.0006699812116595431,0.004429938170165287,1.0129894299216493,-0.0022261739270708902,-0.00037598417152975714,0.0016082108430977968
1880.0,-0.018880076975452686,0.013979882411616533,0.9871407056928306,-0.0016121876126750003,-0.00044697214979145524,-0.0004697373485337065
1900.0,0.02661414914501052,-0.005883310036356946,0.9665852065032619,0.0006713347708284013,0.0017509239852832937,0.0006812262926643935
1920.0,-0.009952775118384714,0.004050831270971725,0.9907031139521809,0.0015866043360492606,-0.0021132688696597246,-0.0003678119236687447
1940.0,-0.0021609474125867194,0.0055379527203608956,0.9990957444444342,-0.000835093241969532,0.0006949765695011936,-0.00013985256208747958
1960.0,0.003470743553637376,0.005729549703521986,1.0011739768468806,9.886163388685395e-06,-1.9163029458856654e-06,0.0009305298649009255
1980.0,-0.0029439309971478807,0.010785733113468109,1.0324807839853642,-5.263991650655501e-06,-0.00011926397586132466,0.0007527437895810765
