timestamp,ax,ay,az,gx,gy,gz
0.0,-0.016679486304333038,0.009838966194515473,1.0251591285884933,-0.0006269041281538009,0.00012820208887128398,-7.552835795387756e-05
20.0,0.01054505230208642,-0.011244938467211155,0.9701722181041896,0.0012814952983573947,-0.001673077111692465,0.0006913250406772142
40.0,-0.009230412749363684,0.00034476906218111635,1.0228012497533028,-0.0007990325811812467,0.0012768400571169492,-0.0006832177145940558
60.0,0.0021984634366459654,-0.013040536244743457,0.9861949251878056,0.0015643226647110253,-0.0013625693060163142,-0.0009142337665249549
80.0,0.012245642979091975,-0.0037038142180171596,0.998347781165834,0.0006859289175881636,0.00033164912840056085,0.0005101108184426437
100.0,0.014652235073752249,-0.0018865652486941165,0.9890995081864861,-0.0003918801260426215,-0.0013084163733794092,-0.0012817258835308193
120.0,0.020206448829517953,0.02208176457689816,0.9896098360969469,0.0006622665723477616,-0.0009965868085687964,0.001860659220710293
140.0,0.003095069276052751,0.0032513965196223466,1.0006924391397385,-8.545839158504279e-05,0.00019664723923382388,-0.0019824334453315703
160.0,-0.029881948809035587,0.013948735985681858,0.9916467272396741,-0.00026528552705463456,-0.0004416991707581806,-0.0006401633339030486
180.0,-0.0005209261119835035,-0.015539900286010417,0.978176848031587,-0.00029060738981448166,8.329393485518541e-05,-0.001010062248792045
200.0,0.009432644069218872,-0.012777874284248463,0.9944655000519341,0.0004916600934511364,-0.0017530102389409616,-0.00011001162442026949
220.0,-0.013255487306268856,0.013946266427637672,0.9872648121810731,0.0008631551724798088,-0.0010705844525686027,-7.91235083034459e-05
240.0,0.0003095433071395858,-0.0017550134775053347,0.9952506915047648,0.00010605581130727996,-0.001419293311048452,0.0004050522748383694
260.0,-0.01436549632555687,0.005160382133763784,0.9487393203359686,0.0008176123475529817,0.000554228266231828,-0.0004938194756047919
280.0,-0.006874957539178252,-0.013867279700778548,0.9979547313453071,-0.0008838156714102017,0.0008928260200708169,0.0007389309954615536
300.0,0.006170190337752466,-0.009958386478667031,0.9751881069954507,-0.0007567103972168924,0.0016205719938701155,0.00010337149863935708
320.0,-0.03324909715892945,-0.004916160874536433,1.0391225338087364,-0.0006498753197283748,0.000766807795672874,-1.9719613362305227e-05
340.0,0.0023842080470109425,-0.003454190396816212,1.0120963869883708,0.0011458958313584303,-0.000397226634006727,-0.0011930106332140964
360.0,-0.015332380300797208,0.018076885606864882,1.016615626311373,-0.0010991091417486387,0.0009009801487814343,0.0004252671459834223
380.0,0.005076097136495323,-0.0024570242191728005,1.0206683479607102,-0.0006906744978373753,0.00027425367025172523,0.0005471080303549744
400.0,-0.010316593293786744,0.0201204624629061,1.0186434194616134,0.00023656045591236678,0.0013747308983569882,-0.0019302233003779777
420.0,0.017229472071607747,-0.0038127011338918598,1.0039113643501745,0.000497460652167151,0.00021280281643249344,0.0013231988033206726
440.0,-0.013004803884325948,0.01445099196768506,0.9997801192933781,0.0004820352089316734,0.0009888555561900086,-0.0004274723572293345
460.0,-0.003753653448387682,-0.010505176161190916,0.9870252997697448,-0.0002416703633546802,-0.0009624100091243912,0.00016356990683088614
480.0,0.005598372703152375,-0.005172050790252648,1.0173056392583884,0.0005198399060295583,0.001772749677275459,-8.816512339081496e-05
500.0,-0.004934232870102305,0.007156574523399921,0.9976496516158004,-0.0011065673819940743,0.00041802535254291715,-4.252376305117492e-06
520.0,0.006614484257651163,0.003257544050748185,1.0248056490294586,-0.0027233633880437425,0.00021937853947145343,0.00019682355460892137
540.0,-0.012026405450199324,-0.014831591790201645,0.995210614374953,0.0008706794478487462,1.884296846335364e-05,0.0006309915745614514
560.0,-0.006350479924518331,0.006423000824926527,0.9594293404237368,-0.0015936729144279793,7.440061741341688e-05,0.0005014421937685742
580.0,0.0018476723237031195,0.010558147886459533,1.007138548495122,-0.0012051732492642914,4.779168514140899e-05,0.002105785614615639
600.0,-0.002334709401629097,0.015671751667110344,0.9829448084848338,0.001366421565272706,-9.367570170098081e-05,0.0018040927752234184
620.0,0.00948823112281032,0.0044207509514903745,0.9832632284935231,0.0016011612935961283,0.000931898753290202,-0.0003882012122689392
640.0,0.0049860706668746905,0.011476135798636013,1.0247748172550122,0.0016636491770317878,-0.0008989942353654882,0.0009776961055069286
660.0,-0.002729458556494977,-0.00976686805509108,1.0095782935994935,0.0007329026063344418,-0.0010860213357671365,0.0006862031438150083
680.0,0.009807724142607806,-0.012905718759180822,1.016431423936017,0.0004432661361909233,-3.624131443042419e-05,0.0002760589968979224
700.0,-0.011964741602599003,-0.015945266927174608,1.0132917436172952,-0.0003622555170613994,-0.0007198010765442334,-0.0024457598631483306
720.0,0.002567885992860771,-0.005430330753245437,1.0145149742213502,-0.0006919962467630846,-0.0006403435528126662,-0.0004855015536381529
740.0,-0.0034523992381211618,0.005568686810790281,1.0204572612752214,0.00012945236913534965,0.000988967882720363,0.00021690498102065414
760.0,0.00602379712265712,-0.0008210284310514817,0.9849065004496915,-6.111423257393488e-05,0.00048682647850587467,-0.0016047716432987522
780.0,-0.008239416656589288,0.003901232585680611,1.0156239668295022,-0.0003469854924462055,9.350210080074998e-05,0.000146937357722151
800.0,-0.0027282801627443675,0.002842555605603217,1.0089172821357948,-0.0006597977271282597,0.00012286175139737736,0.0015681404530413457
820.0,-0.011802672496362396,0.0110403017094348,1.0143672894061824,0.00072681142767457,-0.0007710506054866485,-0.0004587450911665096
840.0,0.0025202918938790086,0.0012274505393752133,0.9932459021059343,0.0011989197909843014,0.00020003515046698294,-0.0009890073058542433
860.0,-0.0010471553407566054,0.0020379606491021823,0.9778159672652261,0.0008038925715879709,-0.0005149226628235078,-0.0004712695900781738
880.0,0.002076684966632852,0.012776745072203164,0.9863219104818385,0.0005479214588739404,0.0012562713130374306,4.011882453219799e-05
900.0,-0.015971671259772093,-0.006910037655911249,0.9927226122122189,0.0009334759129027526,-0.0013419309303912255,0.001205529376052673
920.0,0.01878279896531962,0.00843777317966647,1.0272637181180564,-0.0003213142880351374,0.0007687914131358697,-0.0005477392628816968
940.0,0.00013632879743442103,0.011353339217466823,0.9786422770893902,-0.00030405885943693433,-0.0013375110861241232,-0.002599604598813181
960.0,0.003583123798864546,-0.01069157187998516,1.0130913434901698,5.880844803436467e-05,0.0006708715649664195,-0.0006903156263839212
980.0,0.0054185197495099455,-0.0005240736399523783,0.9814935059593938,-0.0008386376488952955,-0.0006894709386729387,-0.00020896800791406708
1000.0,0.004572523245339201,-0.007424151773867591,1.0227034847239747,-0.0014868692585901615,0.0005744192175060923,-0.00012502225857160529
1020.0,0.003922709406499042,-0.00360456382750905,1.0086330708339162,-0.0008037640048968246,-0.0008763465571666849,0.0007692753775233943
1040.0,0.008078315352889111,-0.004600091979454362,0.9925297737524973,0.0001155499186023936,0.0009888208244234055,8.25420534850839e-05
1060.0,-0.011067070008501002,0.0021613541805838334,0.9935401526600103,-0.0006348098276923428,-0.00038510121552946965,0.0010275771900347254
1080.0,0.012726901052520938,0.0016869139630389658,0.9930549851689272,-0.000813695393549743,0.000580518893131995,-0.00020835216824547894
1100.0,-0.001552612136775354,3.531790144998512e-05,0.9950048033935922,-0.0014093028718100723,0.0007633259348833317,0.0020006052312641766
1120.0,0.010268842886390106,0.00334630149435104,1.0187691040383593,0.0010665540968142866,-0.00012900696537942492,0.000461702181512472
1140.0,-0.016263522250121815,0.009916616883119091,0.9934428745094399,-0.0011028915188392777,0.00034063117271893723,0.0015897684753291069
1160.0,-0.0177528145589628,0.005561423428204685,0.975326225145181,0.0010996768292078029,-0.0009080720327185529,0.00017349539638243007
1180.0,0.0077486725352401125,-0.009712227303088235,0.9838721325976905,-0.001284665918664121,-0.000965019554618,-0.0012931684581541285
1200.0,0.008105585427385546,-0.003832420084677087,1.0084344590635195,0.00017350208469095734,-0.0005419252437312544,6.528282855114389e-05
1220.0,-0.00937452791081966,-0.008052226106452495,0.9743356270442539,0.0011264145286395797,-0.0007775839310531455,0.001838759956013741
1240.0,-0.011421114492620288,-0.0031942191894434066,0.9892559059662324,0.00027010750658740056,-0.00031258522088897084,-0.0018315498637809977
1260.0,0.012641035293515172,0.014867330474030506,1.0107142460378404,-0.0016345542364375111,-0.0020186435567119544,0.0011177521319326994
1280.0,0.008216975086993367,0.002370808690152336,0.9734981446755708,0.0011775656070053672,0.0013954574333319197,0.0015181815871598357
1300.0,-0.01918877461356748,0.0023533062622875965,0.9745223150962251,0.0006442768546905273,-0.001276360011938267,-0.00010413384689675538
1320.0,0.008540866144352302,0.0006885522105751403,1.0149312974302478,0.0008169925072749492,0.0005500279274614333,-0.0006988635607314238
1340.0,-0.004567952178883259,-0.02258760965674812,1.0416542222205933,0.0007776575104863285,0.0015668272803001783,0.0007621241495282126
1360.0,-0.010107819235832372,0.016250304716270078,0.9962138932226112,-0.0007705796027882973,-0.0012098120564794782,-0.000821474517013813
1380.0,-0.001015765463932517,0.012789849611012935,0.9662645585993221,-0.0005188715659462692,0.0009969466865248511,-0.0011709519978476514
1400.0,0.0012405992533876874,0.000979155400044904,1.0033449438046391,0.0007434216434071256,-0.0004102084108458045,0.0014518841193823732
1420.0,-0.007202133194315694,-0.023633931176564375,0.9648442229790493,-0.0013606467726009525,0.0008331722236644595,-0.00036714788112909315
1440.0,-0.0072758114471908894,-0.0019605558322432974,0.9894809933048146,-0.0005745767410753845,-0.0008755976647683201,-0.00036318775104090043
1460.0,0.0010461698681380343,-0.015619344842256125,0.9929021941483661,0.00039187241752298296,-0.00039930973502879454,0.0011183244607226666
1480.0,0.00326572654977006,0.0099451279324978,1.023658185222715,-0.00012152944025348264,8.915055184170189e-05,0.0015305614081069466
1500.0,0.0036124934906262706,-0.0005364869246789184,1.0292755607831112,-0.0005473408149193549,0.00175098078383104,0.0008384668314842641
1520.0,0.005557652456594793,0.00044170550135365756,1.0042746136575282,0.001058682140614709,-0.0006319609839078325,0.0009274376321619464
1540.0,0.009426598082418292,0.0020103410383707733,0.9745659221610132,-0.0013014717478165507,-0.0013370396259791619,-0.0009773062572617113
1560.0,-0.004840495370118754,-0.01116575512059285,0.989330956649582,0.0009226572260152,-0.00038475704195511023,0.00107118131342037
1580.0,0.015920308212423077,-0.015428791057123404,1.003109440404941,0.000800131079316858,0.0012672630635946211,-0.00038181797826316623
1600.0,-0.004047084569855499,0.0025944992140072877,1.0048206470788297,0.0002042584955638855,-0.00020813807241949024,-0.001426972151330309
1620.0,0.002670083625850839,-0.0044043034505447725,0.9946012774003598,-0.00028916101043354744,0.0008552332388379952,-7.60942594250683e-05
1640.0,-0.0035049934165383174,-0.016394960361509513,0.9836605881760555,-0.0006232271096711601,0.0004861621745540372,-0.0012658770004539206
1660.0,-0.0007472539479577115,0.0021745874040774438,0.994565025938519,-0.0011371912343979696,0.0004996306759373888,-6.151120258417975e-05
1680.0,-0.002215146320139948,-0.0019251806508864995,0.9769202804664909,-0.0006913626995039243,0.0011869322808686802,0.00014610734968387883
1700.0,-0.003781736370379871,-0.016799171124713293,1.0436120898152597,-0.0009707090581085487,-0.0006265139351760747,-0.0008980995728405626
1720.0,0.010646920926512832,0.008110882372101167,0.9861495804519725,0.0023064051058946603,3.667024508079131e-05,-0.0005153319430890102
1740.0,-0.014056065251674034,-0.00792496309015009,0.9915750745473776,-0.001081626228952039,0.0007880277157719931,-0.0006544649426263734
1760.0,0.01810616094044048,0.009773771256685083,1.0253220540946377,-0.0007692587234875588,0.000549418144573958,-0.0004797662941178919
1780.0,0.004644945258878938,0.019642489035937648,0.9953422575487648,-0.0004230685385204331,0.0011810346536841843,-0.00037056310254092364
1800.0,-0.0035738324754226065,0.010183263715417135,0.9878332177613005,0.0005494297081186339,-0.00010038251139222304,-2.435652604315223e-05
1820.0,0.0012342905953192593,0.00047824685131817783,1.0320620837632357,0.002414435726049668,-0.0007283469217002082,-0.0010321156025601525
1840.0,0.0045156481511303935,0.01476887503324139,0.9674708519535701,0.0014521618209023298,0.00032729409546671727,-1.318211534800465e-05
1860.0,0.0070609143191940026,-0.011688075988014057,1.016370828708128,-0.0013974673970698801,0.0003590228841576699,-0.0001741667448950705
1880.0,0.003747058477642119,-0.0014748609962257648,0.9944335206344828,0.0012911133033782528,-0.000453510527533962,-0.00023880710748285598
1900.0,-0.004122755245977961,-0.011471076757874416,1.0230818233762902,0.0008108029673905245,-0.0002554182043097236,0.0008424221562600858
1920.0,0.007261789578177263,-0.0005235264881701999,0.9804929317394512,-0.00026719239153454456,-0.0013735200247233488,-6.699473681503341e-05
1940.0,0.0033048956264247063,-0.007767193414921119,0.9943540726490022,0.0008557687990393915,0.0006547100111279347,0.00015025250302398303
1960.0,0.0055973472886752355,-0.00630512168407972,1.0061317560530827,3.865466088948424e-05,0.0027085189683951363,0.0010130343815982577
1980.0,0.009329889903201325,0.002721248852947492,1.015821488976524,0.001568552527448783,-0.0011098218773609955,0.0008865743427985058
