timestamp,ax,ay,az,gx,gy,gz
0.0,-0.0064622624989524174,-0.007148641524670651,1.0148405119379142,-0.0005919858312071508,0.0012009425242722712,0.0005448135267131738
20.0,0.01150009765797071,0.017038443921828232,1.0211041681980237,0.00042039364371827706,-0.0007513970259457567,-0.00035519463548598374
40.0,0.01677480045458626,0.00958116365981667,0.9760607579803996,-0.0006674322580068285,-0.0008824809953593954,4.8854367777109545e-05
60.0,-0.004160883070759042,0.008085735129452105,1.0495324071568015,-0.0022407430472432496,0.000300548296786212,0.0031230517714421198
80.0,0.002294137724901027,-0.004759826002136529,0.9946020002391394,-0.0006141229435511465,7.992840385960527e-06,0.0012730105543441773
100.0,0.003731844921789386,-0.0023144212211413436,0.987187199292353,0.00033418470294805074,-0.0011979826514300878,0.0004638655835697682
120.0,-0.006243194796941413,-0.0044103119560555,1.0137787331026493,0.0003210119020204651,0.0008019589781231834,0.0006597111756234667
140.0,-0.01163726806587164,0.009209282734452335,1.010492809795748,0.002005151707526593,0.0011490161398519732,0.0013962835918161305
160.0,-0.005733291218071392,-0.019116274406976903,1.0012270775820258,0.0008731409126913281,0.00017900312123333444,0.0003290248887044361
180.0,0.005938856606392428,0.008038099670495043,1.012726184063279,0.0025736665435872907,-0.0003502768886834143,-0.00047009085332542957
200.0,0.00256105882146664,0.003088858771230744,0.9666578115169123,-0.0002215545371379468,-0.0005762787300721812,-0.0006430375433192807
220.0,0.007296225517995734,-0.010505879925153313,0.9773815254427601,-0.0001033256850230707,-0.0008832776718845399,-0.0007304377441695188
240.0,-0.015482050961994667,-0.0030417704353582643,0.9993950615121518,-0.00029199791929336577,0.0016746550576711382,0.00029678317179736215
260.0,-0.017331365682658015,-0.00046913467474854736,0.9983726155747865,0.00037221022972463546,-0.0005451684537620867,-0.00039780178289483575
280.0,-0.006365283697140187,-0.008786008913461757,1.011701099047836,0.0002574185745338917,0.0007252615287473786,-0.0006478605771911045
300.0,0.002702214161542884,-0.0025885840555952143,0.9917938676782214,-0.0008559092167601622,0.0010243026210111656,-0.001429187191944504
320.0,-0.001305887046656117,-0.008369633440003216,1.0147959402222948,0.0006149509865348171,-0.0005104351722444039,0.0016036136238878206
340.0,0.009145689245214835,0.005774089044670289,1.0012645418246322,-0.0012042208312678065,-0.001155309782883156,0.00012520085007661227
360.0,-0.03180820112357184,-0.004077232989495263,1.0162829284884622,0.0003530633939331422,0.002191424513109495,-0.0008755491993593459
380.0,0.005260606046889639,-0.009049141540680912,0.9843263647764633,0.0005106252124723829,0.0012416847142631897,0.0006831289954048308
400.0,-0.011517795483643898,0.0190699372098242,1.0589714148437177,-0.0008827662529568005,-0.0010121223047377464,0.00013158861041364842
420.0,-0.004708600472499801,-8.778322561150375e-05,1.0027049036550553,-0.002150423518104,-0.0007928675395289164,-2.548827799200373e-05
440.0,0.009465033398891981,0.003528881333365289,1.0029660375041716,0.0006363015770235163,0.00023054258093524924,-0.0004012314637178118
460.0,-0.0014534514280491926,0.008820402799860735,0.9832986913318028,-0.0005612452047647728,-0.001071665119670535,0.0012552785404822495
480.0,-0.01849055823383122,0.017740024196406638,1.009896794246246,6.292140069628257e-05,0.00032755742686107,0.0007057821929111988
500.0,0.003470395992075827,0.004499569214548764,0.9859494083422587,-0.00018986500296034226,0.00035469448623236407,0.0017305086324418243
520.0,0.01486148903111747,0.0007793763713337967,0.9919289980244889,2.8347986777415227e-05,-0.0015384256370380796,0.0005544445321384351
540.0,0.002556059579181802,0.004341987030088932,1.0075470806550983,0.00029419281937448464,-0.00043518739409076265,0.0007472653558116551
560.0,-0.004743826169094568,0.011979327886826752,1.0330206017939194,-0.0005476760911044199,-0.00027160099891935033,0.0011504958498045165
580.0,-0.002060738589660555,0.001044321711607119,1.0042134646414433,-0.00044975797545118593,6.488591920076796e-05,-0.00035119909589521637
600.0,0.015086661824472493,0.01919554976889446,0.9814241569372639,-0.0017315258960097465,0.0012049658116906343,0.0006098856898610699
620.0,-0.002945915950230999,0.004660278994267312,1.0134768044812472,0.0012597648615819367,0.001605996410353004,-0.002051836729474824
640.0,0.00786981000203863,0.0006964828204263784,1.0035492643929818,-0.0006991593572716798,-0.0011104430916844196,0.0013093152530412669
660.0,0.0032899457445968363,-0.006208567743734749,1.0077080286054976,0.00043803467005736307,0.0003669493118968553,-0.0006798195562996107
680.0,0.006083235944270854,-0.006658144576519281,0.9972663026208717,-0.0014875314615982196,-0.002244340465283439,-0.0004794476774188938
700.0,0.005067602348239254,0.00036330913229337013,1.006177953597579,0.0008538840372202912,0.00014415830027133538,-0.0012645107696283872
720.0,0.0010158132220042413,0.0027528769184000136,0.9990601536174178,-0.00018151850285465083,0.0009025558769647083,-0.0011037693306690784
740.0,0.0005695892103557666,0.0010094904318185952,1.0072976893338934,0.0001269613018585197,0.00040881324255627227,-0.00035523309139259346
760.0,0.018849870808176225,-0.005755095412291994,0.9834453340295409,2.974807121999348e-05,-0.0006557137550204646,-0.0004472593717252871
780.0,0.009683221164982549,0.008931238120392626,0.9923032849069291,-0.0004356250662497948,0.0004496755846985096,0.0010947391978954964
800.0,-0.003527439847807932,0.016026699016205747,1.02286410095342,-0.0006816552714344128,0.0013300458256787356,0.0013420391135884476
820.0,0.0017805304551176608,-0.0036841085234992307,0.9875203830361629,0.0006761752122582042,-0.00021353783150548217,-0.0003874320811670132
840.0,-0.0010758581288458945,-0.0023342283608720742,1.0011181946272985,0.0005379421502907755,0.0007828615034675177,-0.00014226800142805546
860.0,0.005571163452684625,-0.0013845449008572767,0.9926605946186381,-0.0004622809103518492,0.0006520928451901121,-0.00076309826041888
880.0,0.0009205912279088721,0.011468692869306405,1.040310760414978,-0.00029285776865265996,-0.0021296022202587075,0.000596467125011132
900.0,0.006995334740586896,0.010466866669680872,1.0026117343105572,-0.0004300070935725857,0.00014894318043133774,-0.0003066191488493856
920.0,0.0005023545773357432,0.019178744855132806,1.0217580858422775,-0.0013652291665973274,-0.0006749866065317909,0.0006053178155931237
940.0,-0.003764598589122693,-0.005519470856338936,0.9823801372264644,-0.0009156032237779256,-0.0036231232492091123,0.0012392179142853804
960.0,-0.006855477676682955,-0.01176396896342244,0.9912885666456992,0.0004158324450176307,-0.0008923886038772593,-0.00046613659230261274
980.0,-0.004504111429971403,-0.0009867549821540801,1.0181659697077434,0.00045573945641834223,-0.0009721264355447823,0.0007214673331666428
1000.0,-0.003989444481400483,-0.011751424083552127,1.0152626307982275,0.0015456227259961822,-0.0017392697198995528,4.86461021498972e-05
1020.0,-0.012688000898886656,-0.0024179288421368557,1.0163083204355146,-0.00021452900747389396,0.0017021523543336004,-0.0011953898954917058
1040.0,-0.01383031944143108,-0.0004207975341747016,1.0098417640943054,0.0007394269835335993,0.0009052592191427532,0.0006245223919149395
1060.0,-0.0009317844078734907,-0.011282306569905502,0.994153011114169,0.0013818260580327943,-0.00035610188690239386,0.000807219094916989
1080.0,-0.01268844000638588,-0.008375504387180228,0.9571368852112488,0.00026456570232238485,0.00020826626516317763,-0.0002938173382403975
1100.0,0.0014308488883013834,-0.026500057501817307,1.0046758873651678,-0.0006982119107429947,-0.0007222484909296437,-0.0009388389372647235
1120.0,-0.014080982621085536,0.007334784818205684,1.0359641116453038,0.0017667819729840959,-0.0007598541786329862,7.082655028930118e-05
1140.0,0.012199582413434985,-0.010420663119948883,1.0228469810676744,0.0012558802451650571,-0.0009280721881250168,0.00048776599559944867
1160.0,-0.007409953750867996,0.009030441802820475,0.9781007104406804,0.00190510758791195,-0.001536051105167759,0.0013775011727735502
1180.0,-0.000934843587783692,-0.00935672659426491,0.99402264834777,0.0008534972548895401,-0.0005005351773288116,0.0003303586718808122
1200.0,0.003782116097207955,0.015581891364623877,1.0305226307323767,0.00015053563850167667,-7.147419301673569e-05,0.002815431391202015
1220.0,-0.008269575559686776,0.00818905753956383,0.9987143428418876,-0.0018173678230391798,0.0006859507774255774,-0.00024732363743975986
1240.0,0.00885182551020557,-0.008820488916202261,1.0006572465967518,0.00018832066436661694,0.00015403484812437593,2.150487436119667e-05
1260.0,-0.007354206154160851,0.0035440988968643773,0.997820363873867,0.0003054325798681687,0.0005457604007341826,0.000606636887854692
1280.0,-0.012546612515556594,-0.0005777827106291712,1.0229686126909128,-0.0015128425467191365,-0.0013991538408664463,0.0012921795710520865
1300.0,-0.010477626308807511,-0.00837623139976605,1.0174386246881801,0.0010384560469338141,0.00022373841760565312,-0.0024701055771356056
1320.0,-0.01795001702822963,0.0010731369970917184,1.0087186844005867,0.0002068974871108482,0.0011181058283857002,0.000943281969894303
1340.0,0.007786577217361329,-0.016472254364452113,1.0002629688511229,0.002233853874346567,0.0011565115629050724,-0.00048157775026041463
1360.0,-0.00505925062797147,0.001335734959957483,0.9897415777870411,-0.00030762871426467665,3.974917529999539e-05,-0.0008856165998513924
1380.0,0.001822760647832738,0.01632426499597427,1.0136311325031795,-0.0004002000607007392,0.0010048887977757023,0.0007432735683030198
1400.0,-0.006142125855182969,0.014717129402762635,1.010276504326396,0.0008199899473136788,0.0003093187003221693,0.00013791149122205387
1420.0,-0.016918761388968515,0.009619043247280525,0.9847868851255928,0.0015236043971089167,0.0003238101858426109,-0.001600404865580384
1440.0,-0.0026440991844900474,-0.0026639993412018947,1.0284356455756427,0.0007085985132741841,-0.00010400182277746154,0.00023612670650092332
1460.0,0.01939490273934774,-0.008925143230382678,1.011719246081697,0.00018384232939214472,5.555517280727874e-05,-0.0002808960737601868
1480.0,0.024047371518931847,-0.00647189324248629,0.9874471581756928,-0.001151699885602143,0.0002476540685784368,-0.0003155070785611512
1500.0,0.007956639705412171,-0.00259425307904044,0.9780653194165843,0.00010316879068472849,0.0012311732565719294,0.0011556159535476124
1520.0,0.012291515316400586,0.00815241481872743,1.0035610230925058,0.00025620889052770416,0.0004943751114032508,0.00022562794041104957
1540.0,-0.014576837511912534,-0.01087883879140504,0.9683125873475366,-0.0002214046009286696,0.0015049582009094896,-0.0004365547228093768
1560.0,-0.01100067093138875,-0.009669255075166243,1.0155159837441172,-0.0010061533233907817,0.001089939475794153,-0.001959338967623122
1580.0,-0.0012220902063251279,-0.0009064112603378994,1.023027918357369,0.00011586875720114095,-0.0004577306431818816,0.0007916649511650307
1600.0,0.01050067821682505,0.005643304497671257,1.0076074868445193,0.0010055955380833543,0.000377119559179139,0.0012411957547216505
1620.0,0.01838270838294787,0.005388934114836379,0.9997949838772101,0.001397434539066238,-0.0001839041299466841,0.0008488870521217929
1640.0,-0.0031546399470988376,0.004140054374518473,0.990746782918044,0.00024134743440156452,0.0009861373449045815,0.0015823081598113622
1660.0,0.005254734537664495,-0.005435788405743204,1.0130104403975577,0.001067011751096967,0.00026854728822633495,-0.0003346460009508978
1680.0,0.02067724975467825,0.002645077899627785,1.011813099669471,0.0002562468471959822,0.0019369451260173019,-0.00020134158292410776
1700.0,0.004421201119400849,0.016445693414657507,1.0062776483678488,0.0009717067197737327,-0.001261806533209635,0.0014339528692566901
1720.0,-0.0011024439882520172,-0.012446426964022506,1.007712090683115,0.0002715362858589417,0.0006519092326673646,0.0007418783365761405
1740.0,-0.004045452452511978,0.01672898088448472,1.010649784786191,-0.0016151714984605765,-0.002264847409884506,-0.0010291650870551886
1760.0,-0.010765660595592171,-0.0038098912073531934,0.9659746652293045,-0.0011666608715935037,-0.0001792844057677527,0.0010296280320437102
1780.0,-0.010306473652880385,-0.002715537991264469,1.0037775467459793,0.00017187787366038286,0.0008837876677110835,-0.0010156682369906421
1800.0,0.0035101937045610345,0.0035106510754177897,1.0338699366485025,-0.001036291255925293,-0.000324206630598168,0.00018476288887211298
1820.0,0.007033153358771998,-0.0025252193205200554,1.0206115251684535,-0.0011224406487710815,0.0007031936629022433,0.0006216407552813662
1840.0,-1.2100342800098677e-05,-0.002689750017644293,0.9904174759496872,0.0005927641194785849,-2.6237921766972585e-05,-0.00046320627878158156
1860.0,0.016979814670945694,-0.00895215952263797,0.9914708552694987,0.000337404221947898,8.440721868368483e-05,-0.00019999211564676296
1880.0,-0.011858095018813266,0.006407595419118541,0.9820250079580392,0.0013395950538973016,0.0008955724821549864,-0.0008947090276434057
1900.0,-0.0093791588753482,0.023180486190805892,0.9662256048815504,4.0008823139352375e-05,-0.00020849117538824404,0.0004559393611303681
1920.0,0.02105082074654761,0.007143507007968373,0.9994847695350364,0.0010369739048921346,0.0031436132879386534,-0.0002338511052928593
1940.0,-0.02205253189316093,-0.0064875864503367575,0.9985812495701959,0.000869528510215074,-0.0007203768262861424,0.0012648766497776415
1960.0,0.012127319408337583,-0.004783958494964539,0.990899872030811,-0.00019016809795071175,-0.001769594184109031,9.027345186969464e-05
1980.0,0.004580283349333779,-0.0020364844970379927,1.0086529153412844,0.0004916372781802914,-0.0005734966625969229,-0.0004281527640810019
