timestamp,ax,ay,az,gx,gy,gz
0.0,0.00088591143502811,-0.0029289321440477967,1.0118237331975817,-0.0005258669433633679,0.0006593722173442231,-0.0007680559256735114
20.0,0.016926991777051786,-0.006300994076553228,1.00439310091998,-0.0010621168877945908,-0.0006815734752695545,0.0014768689604279105
40.0,-0.01395497330369298,-0.008912822434434762,1.0110104745085975,0.0011310015928093751,-0.000324843923271172,-0.0002439107099696304
60.0,-0.000596809660081831,-0.011367135637530381,1.025488672730863,0.0017276253137043255,-0.0003279854762745896,0.00161912422265607
80.0,-0.00041278620735833607,0.009050305441352761,1.017988238503407,0.0006517850263553232,-0.0007699402449758936,0.002117488402972303
100.0,0.008325432277343045,0.0034481467354217817,0.998512226910629,-0.0006037249854449968,-0.0019505107838002542,0.0004473920804739211
120.0,0.0030982491182066224,0.011806615137590584,1.0134937362155225,0.00037452744260614183,0.0008187902160069918,-0.00027543752628806154
140.0,0.004162605447162104,-0.018642086953479114,1.019860683054711,0.0006115410077823033,-0.0008903417958666138,-0.00044306203682233417
160.0,0.010888072273761831,0.004333896383219537,1.016111900854339,0.00022555290441659623,0.00023146362942250617,0.0010782701363931987
180.0,0.001502635040419286,0.009229965288531664,0.9968182498209498,0.0001507001295865826,-0.0009128640464626673,0.0006132958688945418
200.0,0.00213922649639554,0.01028858707616479,1.0166411727285682,-0.00016207203198693334,0.00025802660800813696,0.00019989840447075824
220.0,-0.003888442063435107,0.004284754841538303,0.9900490105537286,-0.0005212318368147811,0.00019996445270989037,0.0008069307137271391
240.0,-0.016986835967059914,-0.013943900028928664,0.9919747871910979,0.0021293991956632674,0.00038098297077404755,0.00011401965881498462
260.0,0.020566692095371587,0.024914614345339054,1.0471668696085126,-0.0003479775433788577,-0.0011232436879643805,0.0005515321225196735
280.0,0.0008526419906650621,0.004347747218183258,0.9665996600120359,-0.0003180817165999908,0.0005477720918480589,0.00018528105068152132
300.0,-0.013217353214802512,-0.0018833763050008828,1.018114343116037,-0.0008352540230032043,0.00018227329207758333,0.0009175075694504938
320.0,-0.005005677213693298,0.01028196597043674,1.0093448621779286,-0.0006861523983904658,0.0008593064382234149,0.001157583616795208
340.0,0.00919056094078458,-0.0038704346499994547,1.0146615232544334,-0.00019508102279704672,-2.0282629864110335e-05,-0.0001859139641376599
360.0,0.007930256002143747,-0.011658071969818991,0.9835763278274255,0.0007214656648144714,0.0007725089325688767,-0.0010205500181562524
380.0,0.0038143904363712906,-0.01977366560110656,1.0306133633682435,-0.0007155627005433801,-0.0015961307916188302,6.185547546287608e-05
400.0,-0.01516709303590174,-0.012589653891000538,0.9682578768923387,0.0010730533797077434,-0.0004989797012094495,0.0014691654694544381
420.0,0.00415683689803794,-0.0068163235918823305,0.9847322050645213,0.0009338607762343402,0.0010684985260862444,-0.0007492281914580992
440.0,0.011420917149990275,-0.013157634556145712,1.019978650789515,0.0007963606535903701,-9.797717391210965e-05,-0.0013432780652903335
460.0,0.004252196275052888,-0.003833561109599805,1.0037179733008166,-0.000328883060962758,-7.347431830234819e-05,5.182421521566808e-05
480.0,0.005722895904832568,0.004529681537994853,1.033592181832211,-0.00032032488852227277,-0.0008488423952127352,0.00039040311889180205
500.0,-0.0024823859966864583,0.02161141404280526,0.9856270644463312,0.0005648329237602799,-0.0012854507025050615,0.0022255082306580133
520.0,-0.0021548368827009096,-0.005133939153805162,1.0139638123304284,0.0008086667560357658,0.0005124952279874165,0.0002571958145585889
540.0,0.000867012706167739,0.015503026610003901,1.0301808285610254,0.0003080440732142795,0.000511694665708034,-0.0007823864660921613
560.0,-0.008853393631532808,0.004498731875894106,0.9969706746306122,0.0013194381096593142,-0.0008849432489645563,-0.0011406136259833341
580.0,0.01042011495733102,-0.0015749497590745614,0.9875628136030464,0.0007651460700404908,-0.0003850013014585964,-0.0013950414010576804
600.0,0.010382609705859951,0.012815287576381361,0.9763419486692685,0.0008346285797537139,0.0011359443775849818,0.0010243084815874887
620.0,-0.0045789875316040365,0.0005114487918906902,1.007901786639387,-0.002278300172227223,0.0006569929672723002,-0.0008982511991668207
640.0,0.015914530339576884,-0.012725345253782112,0.9805097283118326,-0.0018405731259440803,0.0003279326817843459,0.001257373615451031
660.0,0.010881910251917613,-0.0029329054217486395,0.972942609905693,0.00037270835752720513,-0.0002656769545060777,0.0014142105632865582
680.0,0.007432241526818487,0.002661741470383459,1.0078813855120163,-0.0010921561082866183,0.0017318218581285937,0.00048319823808939326
700.0,-0.0057401085858611355,0.011845717749321616,1.002977445243529,-0.0006996027300362917,-0.00032417380310007296,-0.0009074145653727274
720.0,0.013749302262408714,0.00641408347945639,1.0233567060488986,0.0012306727169900371,4.505249548895121e-05,-0.0012090635322776877
740.0,0.009081141606784643,-0.015366696037108541,0.9434889169231347,0.0007249444679531584,-0.0017375696277856876,0.0002955972079701634
760.0,0.012521325714368932,-0.00875008765260571,0.9976017282921036,-0.00013871063229785647,-0.00022236417453779715,-0.0005611392497277491
780.0,-0.02047308226533889,0.008909388150877679,1.0197782508402984,-0.00041904114898816457,0.000557088479177368,0.001349446663050494
800.0,-0.00588637971630527,0.019226482898885275,1.0210831490922914,0.0011986721808348651,-0.0010781119353646341,-0.00014324847215575322
820.0,-0.0025469860224836983,-0.007715986424902469,0.9934192785094941,-0.0018397986493727326,0.0019472281063799013,0.0011050207920859517
840.0,-0.005522911549133544,0.003062904296564163,1.000353312099102,-0.0004897589742083929,-0.0003896742586009969,-0.0015636281888101317
860.0,0.015857787656390492,-0.004465057244695375,0.9974808287138821,-0.0003286559633953567,0.0008371657671132194,-0.0006209038838706795
880.0,0.011118237711976217,0.0032504406539983015,0.9960910121317119,0.0017982033765920823,0.0031021596759510184,0.0002861299496419493
900.0,-0.011616654425758018,0.012953006273957323,1.0036598853042242,-0.001681285092315221,0.0004934541729736195,-0.0008075029162826142
920.0,0.005300241767224342,0.016280211041529883,1.0080045688091277,0.0020785479342999773,0.0018567353446271044,0.0002012835101241279
940.0,0.010402648127432617,0.011605046210598663,0.954458493872604,-0.00030610732256143455,0.0012373417996244225,-0.001351663907675652
960.0,0.010396190069057839,0.010691218773147566,1.000366912502712,0.0008426021453260245,7.6345068238199e-05,0.0014563072301381737
980.0,-0.0072082829760182435,0.007042926420827609,0.9753621679103114,0.001863502301314033,0.0002131589203318484,3.914261689122271e-06
1000.0,0.001859027153689429,0.020783681680707353,1.0171024598472425,-0.0012869494333937893,0.0005528786572202806,-0.00019399106298867872
1020.0,0.0024367241206166676,-0.0047145210411126065,1.0194641657232435,-0.0008533326199925358,-0.002350708500105471,-0.0013023466964966026
1040.0,-0.014773395005555103,-0.021194633648297594,1.0189465797468242,-0.0003604144782470981,-0.0004070025839900744,-0.0009356317555186723
1060.0,0.015644750369488505,-0.010073853341715082,0.9859738315896178,-0.0013216311624476434,0.0002537429507990778,0.0005704980256388194
1080.0,-0.0017402101595896827,-0.02036205882653938,1.0269357483287047,-0.000957669323490994,0.0013714349960496407,0.002518675012356595
1100.0,-0.0022453663959505796,-0.010809322187968049,1.0401705842248863,-0.00022170126733203513,-2.2190083109572006e-05,0.0005247362181169393
1120.0,0.01714371038730478,-0.012390757490140257,0.9864634273340303,-0.00022763456980850005,-0.0005617865199302479,-0.001235830156438364
1140.0,0.01021605199914982,-0.008879894909516486,1.004136290193598,1.5157290698909395e-05,-0.0010871237161034066,-0.0011453187705011425
1160.0,0.004628805525136563,0.02085703665166066,0.975425712960772,0.0003364948213424247,-0.0007554277434350654,-0.0014058992824488722
1180.0,-0.01761235322870274,0.0030349016010861865,0.9935749162335622,-0.000691140048578906,0.00033115853583157867,0.000661417767826902
1200.0,0.0019446407095135526,0.0038953004378055496,1.0153254502694788,-0.0004487266113628556,0.0008666865093689277,-0.00020780621271939762
1220.0,-0.001648538228235229,-0.0007549770357153483,0.9972330004784936,-5.8524763950412645e-05,-0.0011245078121902567,0.0015157978537027684
1240.0,-0.0018174657498952608,0.0005658916671957311,1.014882789179079,4.837030320961194e-05,0.0007577996753236715,0.0001634630865368615
1260.0,0.02404765164658248,-0.016260174543502797,1.0246138323051814,0.0013397537938629458,-0.0011012344854647188,0.00046051022248629747
1280.0,-0.004370902864148393,-0.01014548605664774,0.9952408351783866,-0.000575497398458901,0.0017484087615508251,-0.001021781946624022
1300.0,0.0026440094383296197,-0.007000111490609639,0.988724628756132,0.0005217749680586397,-0.0006168823647114507,-0.0017005573019377711
1320.0,0.014032672098378225,-0.009690703752932503,1.0013782067713948,-0.0003388064038029798,0.0010392639101321902,0.000144536780808317
1340.0,0.004257993757046276,0.006741355373696274,1.0062658740102786,0.00025358484422377493,0.0014275140982141427,-0.00018849737538056347
1360.0,-0.005924990858602552,0.00902462935782485,1.0005265758847597,0.0008312369490648223,9.949997603759824e-05,-0.000370363957467611
1380.0,0.018889448826686046,0.024178849714287694,1.0185133787762628,0.00015261597580424745,0.0012063164506280577,0.00024352297115549218
1400.0,-0.0040392588752334495,-0.00013794346731799836,0.9761915032000973,-0.001979675127407145,-0.0013037193270216284,-0.0007549999488853846
1420.0,-0.002043992489804427,0.006468240172261995,1.0078481137127884,-0.000518759641223549,-0.000867681645051932,0.0007460326638542085
1440.0,-0.013847718203969808,0.007405404085573452,0.9996612544738168,0.0005807735785231851,-0.0016370774788879812,0.00011617125408447264
1460.0,-0.007348099883626887,0.008723677044365448,0.9847723997159022,-0.001172474438988729,0.0005598430387497327,0.0006129408025714733
1480.0,0.0022192629530960258,-0.006332424594781104,0.9916531676318348,-0.0009125761944806846,0.0013351093884452013,-0.0016362310722516946
1500.0,0.003290291785222631,-0.0045235729845863465,1.0276757425107326,-0.0004686623554259401,-0.0010522629773320397,0.0022040085208980867
1520.0,0.010808120885877029,0.00445239964315814,0.9957640167074227,-0.000545377521837649,0.0012692339336625386,4.939863453112589e-05
1540.0,-0.003800697852654563,-0.011982277885382461,0.9837301136745429,-0.000713610774508715,-0.0006234762699056057,-0.0009036737629329901
1560.0,-0.009174046359889694,-5.325257386098768e-05,1.0231316255338092,-0.0008251103948938912,-1.002961354839514e-05,-0.0017946100809696905
1580.0,-0.011617337886340746,0.005545111334127201,1.0182240588563372,0.0004649558020238574,0.0020214217610456816,-0.0017942585175668671
1600.0,-0.005043835432405679,-0.0114407356435781,0.9941110291051832,0.0001695267637983737,0.0011791183969707645,-0.0004738934363081713
1620.0,-0.009335806896080392,-0.010032655718365343,1.0257768274550039,-0.00034409037957072383,-0.0006876811933560897,0.00015798057385229983
1640.0,0.008076646445394754,0.0026505854044827715,0.9820680271801165,0.0008801316938229009,-0.0015702738554459565,0.0010983240913008039
1660.0,0.014782544695245597,-0.023518138525598965,1.0215977920109403,-0.0002618336894909215,0.0020510321859787788,-0.0001083529472289977
1680.0,-0.016416078492846053,0.009139476289051011,1.0270934657600463,-0.0002644412285322194,0.0007345576525276283,0.0010300545581871034
1700.0,-0.0008001155867983222,-0.005634521538036143,0.986019400644184,-0.001498133695219711,-0.00013522956470262765,0.00041727024874738713
1720.0,-0.010299075232222779,0.011869330885145801,0.9940947715520407,-0.0001957425700675209,0.0008084860376088614,0.00010470269533654755
1740.0,-0.01346440602147698,-0.0038820625327718955,0.9828455326014414,-0.00011496494669052866,0.00040429156960006377,0.0008349856903448067
1760.0,0.005673360887118188,0.008960753466792945,1.0350429924067472,5.630937849106268e-05,-0.002014346314531835,0.00022850124923364686
1780.0,0.00531865562016987,-0.008281353478308797,0.9712105541770389,0.00090653018138558,0.0005680254206165791,0.0005900622342586892
1800.0,0.0018917376425067606,0.008679910804418692,0.9740520583777571,-0.0006383646283792316,-0.00022310149191481427,0.0011965401065668982
1820.0,-0.006490275926645064,-0.008314225482499226,1.0082535751548634,0.0016710849183306112,0.0005485562208201532,-0.001065925982686183
1840.0,-0.009018097803823817,-0.01218303656045799,0.9958952307694535,-0.0006258458197567472,-0.0010326082012564399,-0.00028565885760796137
1860.0,-0.0068716403879841535,0.009760460018996907,0.9901940131380015,-0.0002941331020391922,-0.000771821533790008,-0.0011865068462960393
1880.0,0.009004723991344278,0.004604465542286775,0.9840224061216785,0.0010251118643726752,-0.0013916348773009902,8.015999276185202e-05
1900.0,-0.0033814649940940543,-0.005576374042886715,1.0125541151571904,-9.033462855868541e-05,-0.0010689840493398333,0.0013124480323556127
1920.0,0.010694748077405088,-0.005611598836330998,0.9772091352988425,-0.0013328591741735255,0.001915499568212049,0.0002442300232753264
1940.0,-0.006524540023470415,-0.002956927873619678,0.9830221569609982,0.0015622226403420466,0.0005235285433076014,0.0002557948812292395
1960.0,0.021917090914833175,-0.007917630846616897,1.021377353554796,-0.0013491602858590795,-0.0006984394691806011,2.7233926244386103e-05
1980.0,-0.007031240972751035,0.011354882520389851,0.9609956530334344,-0.000684497789046696,0.0010564736549102346,0.0012785550491374047
