timestamp,ax,ay,az,gx,gy,gz
0.0,-0.0031208102767379896,-0.0052241910892363175,0.9896726340468718,-0.0007595866754553618,0.0003975744543289265,0.0009536781693072874
20.0,0.02053827059814576,-0.0023481207710752605,0.9520121541035077,0.0007066285701362689,-0.0002652099373607739,-0.0009370659027095422
40.0,0.006247306115831106,-0.004781324351596592,0.99273084795654,-0.0007885852525935996,-0.0004188266037949043,0.0005804323619517554
60.0,0.007443176672660268,-0.012566249969803997,1.012729787264806,0.0007862711490635911,-0.00038817717748277427,-0.0014433640401313541
80.0,0.00020794567860797148,0.022411568645233523,0.9993702394051244,0.0002983892413482537,0.00019307701998206835,-0.00028150886189246606
100.0,-0.0062579664432811715,-0.012238856337040162,0.9998661281377643,-0.0010886142081901484,-0.0002503380197563378,0.0010674614641888627
120.0,0.014768423049655111,-0.002520197655663812,1.0009683305624522,0.0013911969676614615,-0.0023248132103629794,-0.00012070863417502521
140.0,-0.007534880060701633,0.005728207912225483,0.9643022883635859,0.0011760460585848991,0.001145569969697578,0.001820041137740735
160.0,-0.01291342242745833,-0.007121787402548358,0.9855127932459573,0.0012874195576539368,-0.0011439136556964736,0.0007387376926830883
180.0,0.003776943491304621,0.009988096744369217,1.0161710123434053,0.0003755832456412815,0.0006531400599596649,0.0013853002904295926
200.0,0.004020358100041761,-0.008332421387307847,0.9985414267869285,-0.00012585890266694828,-0.0008966194770263487,-0.0008300355750754732
220.0,0.014418370464710714,-0.012669813028299885,1.0034766944278222,0.00045766727347612546,-0.0008401198933651168,-0.00020651223759976498
240.0,0.00773612408535126,-0.003845451935893913,1.0119417848361822,-0.00034231040097079516,0.0006489181529344844,-0.0002482275551739574
260.0,0.014064573179263344,-9.216854068704947e-05,1.0032053368479488,-0.00039493816308329525,-0.0006670787380728686,-5.023859484314434e-06
280.0,-0.015000593150197916,0.009153540401932187,0.9990916251067736,-0.000676286713374073,-0.0006366559511554718,-0.0017915896584601266
300.0,0.005834879587769205,0.021684136089340694,0.9895223937139263,0.0007234099471142761,-0.0007137698794665128,0.00014795748080599882
320.0,0.0004011976443108783,-0.0019075344894120673,1.0077624368102922,-0.000552951194306915,0.00025888912723058056,0.00027501352955311214
340.0,0.024825864564704373,-0.01562897139432483,1.0223595643412884,-0.0006062299538650491,0.0004668064869972483,-0.0004554473954264098
360.0,0.0018956261570444986,-0.0010233245588322079,1.00233628758546,0.000427544903240946,-0.0007889544211752294,0.0007362067333391378
380.0,0.015769986090144718,0.005383913300217151,0.9987789806956918,0.001860278201928956,-0.0010600662195247872,-0.001262566274469895
400.0,-0.002127799634524549,-0.00433483745397907,0.9671210295437026,0.0001795421162264943,5.383194814301366e-05,0.0010349299177658312
420.0,-0.0016256100681910255,0.0027482103262694985,1.0126451204254157,-5.18973394912568e-05,0.00140214028674938,-0.0006067262853785431
440.0,0.0007356304820929282,-0.01382263855679305,1.045385663916712,0.00026840010573673715,0.00047536515779695183,-0.00011522823052285123
460.0,0.00773439317784517,-0.0056509892559707875,1.0116747956023862,0.0011800941426493498,-0.0002174577560226601,0.0016786596095082016
480.0,0.011166819800722599,0.013671809887598769,1.013361914695594,-0.00044036741082058496,0.0009779394616664097,0.0012680080936646398
500.0,-0.011297193765967278,0.007261523251224421,1.0053450513593143,-0.0004007817183417548,0.0008854543749692083,0.00016722357221630386
520.0,0.007007154810383497,-0.0028036228336218113,0.9446858128049854,0.0013841907657936323,-0.000352134268716191,-0.0010070334632450984
540.0,0.01689997078467792,0.004966144015857189,0.9958026119929687,-0.00027996040389021505,-0.0012820279848835734,-0.0003108888949994775
560.0,-0.0020523018559785943,0.008292543990606608,1.020046823910792,0.00135685105021043,-0.001524189327042349,-0.0014149114498463625
580.0,-0.013465146369212198,-0.007842433481465155,1.0023333575040458,0.0011194121629412798,0.001334298400032763,0.001481132844236618
600.0,-0.006488734652394963,-0.005392030175318564,1.0233570096429483,-0.0010100619469751004,-0.0002495873023924878,-0.0005552765220744106
620.0,-0.0010057855747105703,0.0016709829597010676,0.992383679939523,-0.00022437681928620017,-0.0009292342308419664,-4.608892959656948e-05
640.0,0.0023242636464431013,-0.004476822973398686,0.9938851683290494,0.0013871837874602155,0.0007208450866999621,0.0006636717176925782
660.0,0.0010417967741490803,-0.007883084408779963,0.9947683499645311,-0.001742016922246422,-0.00046818189835542317,-0.000121414388527462
680.0,0.008379272299614013,0.0001456992241846853,1.0464737958080865,0.0005197241897724094,-0.00043446638275673277,0.002037693122961329
700.0,-0.001288471150862909,-0.008990032340679225,0.9912643576342809,0.0010753626425471718,0.0017049462301245712,-0.0008674622728315791
720.0,0.007906728335215921,0.011206902132127142,0.968383930246637,-0.0003218421323972268,0.0003489333417975244,-0.0002660480464137832
740.0,0.009277096191603445,-0.008677048484065867,0.98111284883745,0.00028452478917991074,0.0017994974013728026,-0.0008583192212569399
760.0,0.007286978593234941,0.018135983597477645,0.989650908145168,0.00024247238640232117,0.000867194758246214,0.000805982688799284
780.0,0.004303331867665602,0.010021212827916562,0.9794954545232141,0.0005582382674782341,-0.0016580651507318467,0.0003721256993596581
800.0,-0.006935536811620743,0.005217304078212304,1.0055272277322964,0.0025954078901259474,-0.0003825832977349751,-0.001596955821613712
820.0,-0.010630333184298629,0.0072258413684436395,0.9475246167272094,-0.00010946349427654926,-0.0018740361190401793,-0.0015992987760317346
840.0,-0.00679700429585168,0.007522092272400788,0.9745245010670076,-0.00020296521252168503,-0.0006338339088536394,0.0013377254979028601
860.0,-0.011937293650563615,-0.012696798856234221,1.0123370629784103,-0.0009032638838989437,0.0012348071439836255,-0.0003372070074859481
880.0,0.004607453480669717,0.01019503648479561,0.980093949853857,-8.841338724259729e-05,-0.0005717105206399652,-0.00017753477357549682
900.0,-0.008467859851929141,0.0013726830264265148,0.9947942012959189,-0.00015785136460666908,0.0008518652905413495,-0.00012453827784833434
920.0,0.010173480057086261,-0.018752940889290377,0.9898036828739758,-0.000752588346605242,-0.001258422200225852,-0.0001347494491494102
940.0,0.0009879956345187943,-0.0023360639521795043,0.9848400879767484,0.000103193675816944,-0.0020087520309051985,0.0001962665986489778
960.0,-0.020851622422476252,0.013948745692189733,1.00800991706653,0.0005280996999558293,-0.00027460036332859427,-0.0004392925156663411
980.0,-0.0021339467727209166,-0.010515366778290673,1.003299359455686,-0.0006900077190459121,0.00022579835751040052,0.0014281956962175664
1000.0,-0.005394139391226681,0.0104631244622626,1.0075102750847382,-0.0014940603935454403,0.00024086784653153966,-0.0009822891309524062
1020.0,-0.005471976859908313,-7.723323812983006e-05,1.0086307929504637,0.0010094632765179213,0.0011806380739980086,0.0012622212113316787
1040.0,-0.00762438737392184,-0.01051081307707223,1.0471719291608257,0.00024036792494034788,0.0004947913790461474,4.22317134965626e-05
1060.0,-0.010812737110939897,-0.001530659746907772,0.9829913697343566,0.0008288571675254006,-0.00023019994004905655,0.00017812770704525067
1080.0,-0.009195488910199607,-0.004703851540271676,0.9673010393601058,-0.0015724197334945893,-0.0009659638225706206,-7.541263324492044e-05
1100.0,-0.017328152018187416,-0.012418752580957218,0.9897755200498783,0.0008524861978999671,0.0014228531332154553,-0.0005055981908949231
1120.0,-0.000841686550404245,-0.010238871808732888,0.9843359512955904,-0.0024247411813877774,-0.0015549930433689373,-0.001462642911675312
1140.0,0.0063443580927206355,-0.008457094323363811,0.9951856507138973,-0.0006752412109235282,0.0017918457932504224,0.0008396967799246095
1160.0,-0.015935082586172062,0.0015104572716015505,0.9893213987556264,-0.0008624473599333753,-0.0002320920368977851,-0.000964410452063131
1180.0,-0.006291602479810148,0.011436552442452988,1.0205360950631752,-0.0014740563187045066,-0.0016453846045509251,-0.0013926752750653183
1200.0,0.0011520458737868337,0.0056396125109777215,1.0214288364022543,0.0014887671844542466,0.0007448888102144605,-0.002423797870291316
1220.0,0.012179957543526923,0.011175857313738338,0.9995009756125023,-0.0018928508341981406,-0.0005885415803404285,0.001229236374745439
1240.0,0.00414844941947299,0.008317257119617415,0.9865137449003372,0.0007307316412393021,0.000407014676937711,0.0009522514727254337
1260.0,-0.008570646813394936,7.358320831347822e-05,0.9965164411158068,-0.0002398141414787518,0.0003529539624193703,6.647612503459066e-05
1280.0,-0.0033307722230562892,0.008355832920409699,1.0046217031291815,-0.0011351195156707916,-0.001772711663435349,-0.00028906423723038156
1300.0,-0.01383243414624207,0.012813621986628408,1.0317745688603557,0.0015732548929436334,-0.0005431963545820826,-0.0011100022938945145
1320.0,-0.012030349103985833,0.011885413771515365,0.9702157035826778,-0.0005602276966966995,0.0005903571133440966,-0.0005727670183939048
1340.0,0.008053130257489468,-0.007717494008651077,0.9710514862070074,0.0018028190669680784,-0.0007311007257627256,8.331698111537888e-05
1360.0,0.004281782665991538,0.007036842115498288,1.0358999987368072,-0.0011451248222657468,-0.0020515706598032563,7.376801214465435e-06
1380.0,-0.007969664731518614,0.01261006504395879,1.0360468709733384,-0.0006383412378301071,-0.0004308433290210911,-0.0007365520346505525
1400.0,0.01000391905125363,0.003946413645834512,0.992876112956917,-0.0009274477197513075,-0.0010525160079685753,-0.0002663963401467534
1420.0,0.01198138891940457,0.012010423716797468,1.0051289758858701,0.0002818816360475103,-0.0011093914256274037,0.0007850871640976066
1440.0,-0.002960562764709187,-0.004236554526257086,0.985897238453849,0.0008752366444101386,-0.0021601938422503323,-0.0009942071244904277
1460.0,0.0041675094372206475,-0.0012047819645492185,0.9967768537650036,4.5449890894804914e-05,3.98621749130676e-07,0.00040713980370700177
1480.0,0.011423841773033159,0.004131378360817971,1.0066237539254954,-0.0010092324324997683,-0.0012422257340567503,0.0001124800383268395
1500.0,0.012243197560038381,-0.001753705569187377,0.9924325840197169,0.0013754670371141939,0.0005020303519345295,-0.0026034592343847696
1520.0,0.01320527124792748,-0.0006190452345812384,0.961742981444713,-0.0008698219614124617,0.0012980799979709942,0.0002572206770615013
1540.0,0.00392489515450256,-0.011363497412264034,0.9861590974494171,-0.00033710673413217025,0.0004397105951168565,0.0013508163324198322
1560.0,0.002248925404545209,0.004847433284134998,0.9722069115546835,0.002036378848263711,0.000985076221470933,-0.0005656369044065705
1580.0,-0.006779958924039019,-0.0019168368389551513,0.9890528778578443,-0.0002979174677561634,-0.0007204321205854252,-0.0009761924632810809
1600.0,0.03387359770397624,-0.0033118202467550734,1.0163932525122106,0.0009761403602295089,0.0003780920876768534,-0.0024141781997126226
1620.0,0.01264898443097346,-0.0076713122247527715,1.0537070574297418,-4.312844454294791e-05,-0.0006996045783164098,-0.00043715389627771705
1640.0,0.005990885276385169,-0.009760814889424882,1.0000511314192018,0.0020631468365823304,-0.0007354205215901398,7.041041876451258e-05
1660.0,0.009094211082168045,-0.0039183846813668965,0.9750224255521924,0.0015106234001590485,0.001595727635674491,7.551898269748676e-05
1680.0,-0.025040234217297726,-0.0034016919819904196,1.0001953361818197,0.00016428928685708713,-8.110025752642024e-05,-0.00033062835813744214
1700.0,-0.0019288346116942605,-0.0039031680699598867,1.009096016288058,-0.0007140320953768427,0.0004988016468119617,0.0003215387580463144
1720.0,-0.002754547739466268,0.004806437117203256,0.9748471299371756,-0.0008031266075940333,-0.0008882079983811712,0.0007448761345677376
1740.0,-0.00587411341209005,0.015445610178427169,1.0050803936656054,-0.0006329687264082323,0.00044288571126932833,0.0009328806501568001
1760.0,-0.00016951614243229958,-0.0021549162204470814,0.9996156385291468,0.00028514915759602575,0.0007451118195775331,0.0011424307516845768
1780.0,-0.005157533116748411,-0.009375797279325608,0.9978652241945033,-0.0009646671255302477,-0.000694762226398582,0.0009075720526459829
1800.0,0.004640325030387779,0.02056330139500108,1.0139870383126823,-0.00039165719993041316,0.0005513121629695061,-0.0018542408556814886
1820.0,0.014218510980401722,0.009323252166670699,1.0035601595353334,0.0004994919597167358,-0.0002779834703812328,0.0008233165471562269
1840.0,-0.0025900274214168064,0.014584187318145954,1.0223483796171862,-4.348568395181965e-05,-0.0014415316703175604,-0.0008512619233055705
1860.0,-0.00435559667942521,0.005386669685941845,0.9596697768451837,0.0008009646336028098,-3.822524120236558e-05,0.0027445234141042943
1880.0,-0.004447789701208349,-0.013610922715738496,0.9858123384638624,-0.00041697843502926584,-0.0013590934584011005,0.0009898937093840018
1900.0,0.011964831483468788,0.010267830393682335,1.0108694358107124,-0.0022300954284492727,-0.00017521514618064354,0.0002042192907535821
1920.0,-0.011425801816470236,0.006414890349704727,0.9710807725243886,0.001073993125909329,-0.0010645541181707695,0.0004639213898809963
1940.0,0.008688372021327806,-0.004570470466800183,0.9685194881926635,0.0007158283835366385,-0.001072382738654085,-0.00018358961167737548
1960.0,-0.007132099096101025,0.008735862811663298,0.9935725656815672,0.001117717640838703,0.0006487307218542938,-0.00029705640568807425
1980.0,0.014188147586236453,0.0013693540263286597,0.9889967593986678,-0.0009512320191812832,8.103777882157473e-06,-6.0318095471904295e-05
