timestamp,ax,ay,az,gx,gy,gz
0.0,-0.004363265385893243,0.000762175085442789,1.0383732792865275,-0.00048488085909097667,-0.00045975439772578204,-0.0014807517275947687
20.0,-0.004167980918404482,-0.008124544963601989,0.9633032950761922,0.0009089572183341633,-0.0029207655176138243,-0.00039063870940952473
40.0,-0.011251646858905015,0.0026470080512536807,1.0240020199290432,0.00022394795222347873,0.00038879914965360976,0.0012673029166415098
60.0,-0.014094348676385494,0.005370032461579208,0.9608148883998429,0.0009893275544971894,-0.000176268281600795,-0.0011204300119000404
80.0,-0.004071983351823116,-0.0004369928519612274,0.9787379288432838,-0.00020951013455743889,0.0007020932631895057,0.0009412676627157111
100.0,-0.0063746389184894,-0.0018376011386505087,1.0450988288525334,0.0013313319131064095,-0.00013630860931138886,0.0005186744315536049
120.0,-0.01628497457386193,0.0019738692081252367,0.9772998955560678,0.0016108164779003304,-0.0004142684431401913,0.0011100457612724841
140.0,0.004525908540987163,0.004018438074259429,1.0242132794029202,-0.0010006031014482958,0.0018545312898147152,-0.000672376582099047
160.0,-0.007959489609084096,-0.0014264417048544511,0.9898635228276852,-0.00040580301658610965,-0.0003606373806464995,-0.000446529103991396
180.0,0.012016655019576938,-0.0015043582788725818,0.972401769000925,0.0002554159949195782,0.0004122843457428587,-0.001471956942111042
200.0,0.002393648596539883,0.009316817415323109,0.9745325378057138,-0.0011308115134052994,0.0010082583461079118,0.0017659262163491377
220.0,-0.01424986405490222,-0.0227364273169183,0.9712660237713623,-0.001399647033199105,-0.0004070983691518223,0.0014392438824854662
240.0,0.004968030822504999,0.01819974305094106,0.9996241465509104,0.0005164063794568096,-0.00019721144490477525,0.0007184641511216451
260.0,-0.0061039362544133315,0.018255844676657106,0.9701226498473081,0.0005343158464992425,-7.36851713705711e-05,-0.0008258303660126205
280.0,0.02317396782464995,-0.001354520410296867,0.9769712970908814,-0.00016390448619032187,0.002533564027691567,0.00011779489439134343
300.0,0.01044229913682898,0.011839559236080422,0.9911636743844674,-0.0027313989937300777,-0.0006952804442752411,-1.1280987968644022e-05
320.0,0.01146395899382681,-0.006320430366819773,0.9766919806883224,-0.0014845340894407122,-0.0004999968952246264,-0.0002159692477405276
340.0,0.005383744243277656,0.014568033961236643,0.9862477582930363,-0.0016536719711598468,-0.0012818298447710623,-0.0012276004550597376
360.0,-0.002628121533354064,-0.01962016534571224,1.005246551078964,0.0011695197701101694,0.0021252034945526796,-0.00021260910359888153
380.0,0.005608553317102651,0.013173477425057676,0.996432500532114,0.0003787179007000069,0.0005227736442459763,-0.0019803584425208986
400.0,-0.003866743662903091,-0.004645160805039243,0.9829017915912853,-0.0004089343162352457,0.0001964279670185732,0.00017780123472175473
420.0,0.006359995557038782,0.007312643850895327,1.037727249073576,-0.0001988429934587192,-9.182600857285229e-05,-0.0015321631532012167
440.0,-0.007518925543283198,-0.009135186453333997,0.9983004149729751,-0.0007259780226166647,-0.0007004728914120815,0.0010790691960016296
460.0,-0.023182250397519436,0.011118911870817086,0.9921978960917687,-0.001400036137464599,0.00015503848407146255,-0.00015097859477284013
480.0,-0.011224212197495198,-0.009165671818537545,1.0112700290996985,-1.2158127441939573e-05,-0.000994137052790458,0.0006634734709665105
500.0,-0.014208560296422064,0.01098416343122309,1.0214778626186731,-0.0011359550718370972,0.001818569548972322,-0.0004397251508025301
520.0,0.0013494179260289897,-0.007893387800438698,1.0117266827597726,-0.000616893548625239,0.0005410854749522945,0.0019466315024481312
540.0,-0.004106625455246085,0.005598424206659706,0.9921152615195085,0.0009485962142348533,-5.937689925855097e-05,-0.0012620527473245658
560.0,-0.014227340482212546,-0.0061915869841085444,1.0188155590171537,0.0006586722547145333,-0.0006932991308641811,-0.001759180351884828
580.0,0.002942251231100324,-0.00041842912799535124,1.0165407827670798,-0.0002114177865796841,-0.0005007740137348136,-0.000566315614309379
600.0,-0.011439724276846757,0.004362031659594461,1.036484908807818,-0.0008096262593451577,-0.0016766769575139394,-0.0012942156836971727
620.0,-0.0026324824627003657,-0.009876068395334439,0.9776282842736017,-0.0016246711790223946,0.0001487179987416827,0.0009228700165359166
640.0,-0.0009252982732874113,0.011156096055041961,1.0087679117361539,3.200195053654577e-05,0.00156400109571584,3.197941349178615e-05
660.0,0.017237812791643867,-0.008320617439022258,1.0163526677627142,-2.558687826370854e-05,0.0004225850009093417,0.0007172758216261451
680.0,0.006014558357690724,0.0009603229114968527,0.9685735277997289,-0.0005936834806499057,-0.0003552399514214439,0.000148647184272551
700.0,-0.0023499612748095994,0.005248035902872943,1.004074530391987,0.000132119249315309,0.0005145109596675963,-0.0014772225568494349
720.0,0.005336339757419354,0.0027511832898901283,1.0270129130157342,0.0008814929427004574,-0.001176004291130143,-0.0026283145635718325
740.0,0.009155073410249822,-0.0007670912471201145,1.0015290102182195,-0.0001632811567601221,-0.0007634700996017008,0.0011670509209878996
760.0,-0.005602671763519739,-0.012261688146828464,0.9847131680729518,0.00296844114020329,-0.000962629151327128,-1.356173842221073e-06
780.0,0.007536770906254454,0.01738165448600215,0.9987943341165314,0.002797912898455052,0.0008070146508281807,0.001529587965203428
800.0,-0.0031798116286436717,-6.0698413441536975e-05,1.0068873217181675,-0.000848430115553671,0.00017950589893664485,0.0013584695737800963
820.0,-0.006499992720688808,-0.0010732164492709623,1.0297496036600784,0.0004880739714640747,0.0001062769329327606,-0.001907096532420466
840.0,-0.009667095671165778,-0.01262057250686186,1.0117741700090057,-0.0011966635324033746,0.0004272321334358133,0.0002872999041609193
860.0,0.01755039270094802,-0.009518014969443751,1.0288019493412544,-0.0009945155687051607,-0.00011678603288232024,-0.0001534255098327269
880.0,0.0014610224081744723,-0.006671145720583455,1.0096103141307335,-0.0005398185385989235,-0.0010476566847023438,0.00023815739199109786
900.0,0.0036158837999708173,0.00034135244555874285,1.020390284726927,0.0008078036506897628,0.0016018830207077345,0.0011927924038745703
920.0,-0.0018054550167581277,-0.007764996223011067,0.9923764624810304,-0.0013859574136867257,-0.0016752317764900835,0.0012497154563254791
940.0,-0.00876838997946102,0.0019087620234938506,0.992302516048692,0.0014345752840901659,-0.00058678189813645,0.0006730699763701269
960.0,-0.00620666702460856,-0.01191754679221269,1.003482653522182,-3.2718652831065696e-05,0.0017225844698515375,0.0007069960425069935
980.0,-0.007181103799060625,0.008724762013972417,1.024756790127172,-0.00021957222709520887,0.000835237269541714,-0.00010894743341335678
1000.0,0.002999009525550334,-0.0005967531359564555,1.0307923090074778,-0.0009012935488114025,0.00026479861950231626,9.517318077410548e-06
1020.0,0.002470283839907098,-0.012010738251542856,1.0171692425905936,0.0005382859074542896,0.00032311388712214233,0.0008545267769728698
1040.0,0.0002399599575237623,0.014601118591104207,1.0227092595150102,0.0021142858996381388,0.0007066196304700373,5.9563797511994505e-05
1060.0,-0.0007430530273568384,0.004085402773701,0.9899133877809053,-0.0012992935659881311,0.0008561919616702941,-6.669159786691536e-05
1080.0,0.008274335095624826,0.0009981144995448716,0.9719328370669046,-0.0006320230215889633,-0.0012810977904906655,0.0011096834852215164
1100.0,0.0032972377542110133,-0.012911478268572162,1.001756220949075,2.7733235276970717e-05,0.0007203208938950189,-0.0017607703722251002
1120.0,0.008459899529859262,-0.011591873612952231,1.0039150668431827,0.00104350357958818,-4.3036983196241645e-05,-0.00019996062081523202
1140.0,0.004722895575149255,-0.0009930258445881087,1.0033456447887212,-0.001480163019012968,0.0013676314684077124,-0.0007068373651208429
1160.0,0.00701631341012361,0.005696288756242366,0.9863747843315818,-0.0001521165934191663,-0.0005102774999479518,-0.0012029007348776082
1180.0,0.013271034850466573,-0.0015075375577613488,1.0367351631715334,-0.0031212525826434055,0.001701898563552483,-0.0011479700626598993
1200.0,0.011957241818577654,-0.0056851786111583235,1.0154589108349252,0.001150560852706249,-0.00021734963699524115,-0.0005583188223186132
1220.0,-0.004211648936743884,-0.014561335021129738,1.0168170580228153,0.0004555986418831267,-0.0010494072173448947,0.00019917805111638564
1240.0,-0.00967306935955919,-0.022242389163813582,1.0211575693059447,-0.0017179812309693217,-0.0013323234423517963,-0.0011516247166637184
1260.0,0.015197949303122361,-0.0076531356607101395,1.0401226264943613,-0.0009881018896919311,0.0013685926473256437,0.00017102925918981951
1280.0,0.00536908326680094,-0.00860036647762869,1.0436655922048756,-0.001850046277200869,-0.0013827711712762628,-0.00025508510030423264
1300.0,-0.022489096018583583,0.014452283073909862,0.9891423056845071,-0.0012565583681072867,-0.0023488757209665337,-0.0011152113620004251
1320.0,0.008167905326693422,-0.001320274457046124,1.0252317744576112,-0.0001026223851505947,0.0014370794189268203,-0.0006931214441639758
1340.0,-0.008493434344011556,-0.0016173327956702393,0.9489458985748068,-0.0012923305531424491,6.201629865590331e-05,0.00048161522801715834
1360.0,-0.004929953273104347,0.008958276245744742,1.0054281361841089,0.0003675349154918579,0.0013317286440543256,-0.00045480325315876613
1380.0,0.011793988599974128,0.016653726415020477,0.9881420405053418,-0.0016762927367554418,0.0004666213029166723,0.0014229633325657377
1400.0,-0.0047423615282939655,-0.006306163813092204,1.0015440360812853,-0.00021338696636809322,-0.00026151946749928986,-0.00014568587257703135
1420.0,-0.01315681935975247,0.019779484632349346,0.9837184072536265,0.0009068850271904455,-4.041631693577804e-06,-0.00015509661058781405
1440.0,0.008871462559335047,0.0036657392591866,0.9931503838005364,-0.00124056918360781,0.001606342350920602,0.0011707939217284443
1460.0,-0.002572687062749867,0.008036775824697216,1.014919333193256,0.00017592238450961923,0.00026261269018307737,2.8611088964977252e-05
1480.0,-0.003672528905689872,-0.008109188589099689,1.024062492755055,0.0006473102712078244,-0.0007857473148557454,0.0004917218898561842
1500.0,0.008062040394503455,0.007199914935669753,1.0063482545997926,-0.0005119611754413622,-0.0018592005163250676,0.0010233867354862425
1520.0,-0.012263999830885657,0.0048280574700710595,0.9986466347496012,0.0004291605797930711,0.001901316058707299,2.7652208120887432e-05
1540.0,-0.011635084896523925,-0.0187996671216558,1.036671644602023,-0.00030968671548482535,-0.001795813800338461,-0.0006930862120237202
1560.0,-0.014155383761867354,0.006046973840597233,0.9853528607562083,-0.0010432172060357825,0.0003243198163187705,0.0017748825728069557
1580.0,-0.010853840744132063,-0.004317948430595336,0.996071130905347,-0.000593583443709385,-0.0013457718901267453,-0.002180301419283355
1600.0,-0.009225062776919025,-0.009074938996672275,0.9982165060237354,0.00016479073352316208,0.001220260456875053,2.7289101994702898e-05
1620.0,-0.0035322940201586574,0.00802466408165876,0.9743086235679098,0.0005762892473536727,-0.0004210753291520418,0.000639987005911377
1640.0,-0.006159511798008761,0.0038190771495061637,0.99913703490086,0.0013226514705643201,0.000542295754433488,0.0004013736610835505
1660.0,-0.005534936716834232,-0.0033979915207420983,1.0033497308669908,-0.0020447248036224767,-0.00032508493278875363,0.0011452811350046435
1680.0,-0.0062511959456825065,0.0087043206590825,0.9763875619818295,-0.0005395740625683768,-1.1227355261584864e-05,0.0005138317957130681
1700.0,-0.008469825123851455,0.012633029135971013,1.0023834684704702,0.00021669754764285908,-0.0016006864770005127,0.0002054800413069834
1720.0,-0.02197742078280009,-0.005178238186181807,1.0054351780489232,0.00012562655821159662,-0.0009738147424975667,-0.0019282949767499783
1740.0,0.013985722386776686,-0.0036145515906213332,1.0289584027913343,-4.493810333360461e-05,0.001831440530752879,-0.00012956935380495474
1760.0,-0.010605722075701034,0.002526990517155482,1.021753336524175,0.0007066259246359162,-0.00033593669102632216,0.0013671804929683787
1780.0,-0.006151347534106197,-0.005105894657240547,0.9971306222799575,0.00011791490370730221,-9.120049957832669e-05,0.000679860405267105
1800.0,-0.014621230283673734,0.015676665631981845,0.9422187485906648,-0.001146356109514372,4.3227433121731634e-05,0.0005784406026941687
1820.0,-0.011430190507798078,-0.006413714908709294,0.9657167477703712,-0.0005895991717734275,4.840317371844429e-05,-0.00131606408368642
1840.0,-0.01741515135730602,-0.009769018683037162,0.9647410939676606,7.459739748111958e-05,-0.000821363471146606,-0.0006066347046501168
1860.0,-0.019208222433629914,-0.013339724038281422,0.9976023675284483,-0.0010039200862814656,0.001681436648524243,0.0008828265744880168
1880.0,-0.0001449190581590508,0.012059375179342984,1.0235865965066977,-1.1961316820502898e-05,-0.0014689869687863075,0.00010174709952571139
1900.0,-0.0017214686710067559,-0.011432186375131286,0.9736191245828143,0.0012745304780170444,-0.0017340039395634334,0.001085936477300717
1920.0,0.009936392818887559,-0.02110624032343166,0.9880663269458712,-0.000570448047092929,-0.0008094458082011429,-0.001054695962098012
1940.0,-0.011247112038847373,-0.006476253316980706,1.0031824821847013,0.00023443085969194523,0.0012985046859170552,0.0012613346926496059
1960.0,-0.0038866160277676925,-0.0033864195902734927,0.9993282832817363,-0.0008735679416467477,0.0012935095788134778,-4.077415128115469e-05
1980.0,0.005690147768973394,0.006218378021521333,0.9858473332969223,0.0012776331770556891,0.00019214706692234875,-0.0016430242135806847
