timestamp,ax,ay,az,gx,gy,gz
0.0,0.05064884256731957,-0.0156487328931285,1.0172584911137934,0.044224614441559826,0.008667142420172991,0.0138713951150943
20.0,-0.006987003707544407,0.006014837930386394,1.0174047149222036,0.14370761341539087,-0.01048041426497578,-0.00832865273469791
40.0,0.023357563799369676,0.013254859585875084,0.970011564116824,0.15322615790338284,0.00035201734642876034,0.004191366075714398
60.0,0.013456491939370731,0.0005992111725867471,0.9896287067871165,0.20246705010411142,0.008381327242493975,-0.014280921025123437
80.0,0.01659197194577734,0.02228421090030138,0.9702554661524329,0.0585523977585277,-0.0038329152574149332,-0.009077474370995353
100.0,-0.05948382136688712,0.06267863756599766,0.981605151122073,0.02244059708892655,0.00915657872800623,0.005389417010947881
120.0,-0.023351914338459206,-0.0023459910964037235,0.9997680194553338,-0.08744426910185804,0.0006400828453654381,0.020146560610959815
140.0,-0.07677851457716753,0.014989262090271413,1.0102465077537928,-0.2244320436150435,0.0008851971524799381,0.007551381807363572
160.0,-0.06293728790547735,0.006660026949112491,0.9992249348982473,-0.2044890937957558,0.0037754098801121576,0.008862073037115736
180.0,-0.013451524988064116,0.004706760061633702,0.9890314337286296,-0.13310193721806649,-0.004654325883986227,0.0070817619943184095
200.0,0.028219212699468345,0.021765666765382698,1.0166634335920566,0.018366334926313704,-0.001394173233456347,-0.010484035974618746
220.0,0.066520099934818,0.00271588438932569,0.9764170147076586,0.10167710318143688,0.012623556513892225,-0.025055516240271164
240.0,-0.04685447754983278,0.01382388788028347,0.9743071065787166,0.1768085369971447,-2.5117962636267882e-05,-0.002789977134790913
260.0,-0.12131269246414284,0.031807570829703175,0.9818833562896208,0.18259424044758077,-0.004284854368137353,-0.00574561167270119
280.0,-0.12909888767388517,-0.03529407078304199,1.0291960515317096,0.055765424721188034,0.010939608045775243,-0.006132501565863902
300.0,-0.1306487411566145,0.03565497843621735,1.0244753767370867,-0.018347819680026346,0.0051468348521152545,-0.018192757476384696
320.0,-0.21486301044737996,0.012740578810184332,1.0063911708572446,-0.16149229333622475,0.010975830004896865,0.015221456263102229
340.0,-0.3032038467399499,-0.012523939858202366,0.986699544247968,-0.19398211139925048,-0.0006378130834277722,0.002609131199228742
360.0,-0.3250391969881749,0.03740979691456781,1.0178928205267692,-0.19055788950554403,-0.005566609863110542,0.007733138163506314
380.0,-0.47258688445198127,0.008722575183198095,1.002405336220045,-0.10528127681735111,0.0013833253691460743,-0.0016901736313488461
400.0,-0.5539933091882339,0.009371364010060477,1.0349299511743286,0.044394453374527285,0.0013762693709893584,-0.018669124108108767
420.0,-0.6989085513527488,0.010474868413129617,1.011776370657354,0.11387037646424383,-0.007931047738180437,-0.009578817503700167
440.0,-0.8327332766800241,-0.005856394804793775,0.9747268406588918,0.18488064335300894,-0.013824914095217928,0.007901775155333527
460.0,-0.9637266402585212,-0.04029937390184209,0.9947997773469797,0.19624818983558615,0.004478894506313635,0.009744201268510812
480.0,-1.0377631179093376,0.021282369579355333,0.992725602031116,0.06374782748582494,0.00045656666417779153,-0.00046919827980800044
500.0,-1.2036184072052845,-0.001169112596977564,0.9848326537658598,-0.05877598019891654,-0.003679780945557548,0.0005832862480251467
520.0,-1.3418662641082362,-0.015098886089987922,1.0075291900373544,-0.129043610418652,0.005162743199955209,0.012381612202852246
540.0,-1.3272101908406957,-0.01646655427781221,0.9757921059962981,-0.22781542034782964,-0.004904547509008413,0.01649645712151
560.0,-1.5401576772408825,0.004711489753085689,0.9865219990994631,-0.14057074766210215,0.006186852269306882,0.025573843359409744
580.0,-1.5232447999853396,0.0067263793241082595,0.9610007272832385,-0.1015755658448642,0.0011907926410078087,-0.0019809549874012207
600.0,-1.47809925659511,-0.006638036545972246,1.000007090567548,0.024158850431449903,0.011768646432269,0.0026574805017574106
620.0,-1.534162024024428,0.016050698340741413,0.9766403489237221,0.16693028347114636,0.002032614746649863,-0.012916796385259484
640.0,-1.3949503463973734,0.029121046796713918,1.0268753021564543,0.2195150269694489,0.010177594581788407,-0.014889135210374991
660.0,-1.3833854326411894,-0.01568974421957959,0.9833223753677913,0.17491930018341947,0.0033269889626254302,0.016243100704015044
680.0,-1.315519674511408,0.016387374711635067,0.9891625836822905,0.11593638671237208,0.0008630011632953926,0.029778374235606777
700.0,-1.1784709127409165,0.03366921599668776,0.9695437797337634,-0.03749026514022016,0.0018608856777082104,-0.005851201061425394
720.0,-0.9633487057594124,0.00491476272567149,1.0214596177879707,-0.1309471017955098,-0.004278832872476419,-0.0069453102381034585
740.0,-0.8612141673506544,-0.01817305259304718,0.9953158814730916,-0.1743280279265876,0.017725939756065658,0.00046814487584663814
760.0,-0.7051784800254381,0.016419814528438027,1.0211428975383796,-0.177480537334575,-0.004673454355724722,0.008825210779654076
780.0,-0.6015586986528114,0.0027569081206520853,1.0312394768897362,-0.06746768541423993,-0.008360286809151615,0.0065855267654895
800.0,-0.5421102543435472,-0.0028519872548739755,0.9757742244755259,0.07614537411078647,-0.015933077049711086,-0.0026644460655987994
820.0,-0.4896067588773781,-0.01021741509560469,1.0262405883029921,0.16702039410795672,0.0030190831872467113,-0.0077940040919467195
840.0,-0.36432853851111735,0.03756152721779749,0.9796470142282981,0.18803392073354222,0.009204626183095475,-0.0054729164883063385
860.0,-0.2346352518961259,-0.014979386058497841,0.9976320217985459,0.15292501065242928,-0.018289791825771787,-0.003990999152525881
880.0,-0.26289654052122574,-0.006667945479592997,0.9785442227045238,0.0642036238225534,-0.019385434951088323,0.004185145319192672
900.0,-0.14214592112549454,0.028077281066292762,1.0085176269594534,-0.024763085387564596,-0.0026765058589952938,0.0015833123300768779
920.0,-0.02010329437279154,0.008456279443378139,0.9719730865398633,-0.16894376691487484,0.0019007892483081901,0.001612130392948324
940.0,-0.012409174838296788,-0.013672779662578327,0.9746480973098739,-0.1687387575698474,0.008006509129486685,-0.004330210510053491
960.0,-0.11129098478247526,0.0004930604232489044,0.9664167544273677,-0.14995656264933205,-0.014060814091743987,0.006329089578043114
980.0,-0.12713864285954807,-0.020358282579257498,1.0078657111566154,-0.024523341643742112,-0.0047316623754686225,-0.010459824823729355
1000.0,-0.013896241235128363,0.011258349946214425,0.9840627346716886,0.10321061922342023,0.00881474698467274,0.014482714330165743
1020.0,-0.005320060473703876,0.012459289058507954,1.0008792090909902,0.16182117027823956,-0.01023137123667461,-0.005801218190910922
1040.0,-0.041312198876112524,0.004364599264754932,0.9985207566046033,0.19869700558722647,0.011382889540609975,-0.020438432804833827
1060.0,-0.0006233371966682874,-0.008122068835136817,1.0200995641465636,0.15470373745334282,0.0020165890106379238,0.0029617578271521083
1080.0,0.04943666196647731,0.012473518863435727,0.9819619401880951,0.07353106507175106,0.0014217241976141237,-0.014837262182364357
1100.0,0.03237847065261555,0.026119742267572292,1.0117871837875039,-0.09182137350611928,0.004857760046537524,-0.0031185130589572833
1120.0,0.006156679394975157,-0.04318975960176436,0.9909042759388452,-0.1883295575296486,-0.00949566635346135,-0.014853700927975062
1140.0,0.03107773265234968,-0.007241883369116631,0.9855761178886446,-0.20880244257175848,0.009537838290078742,0.009022088425365848
1160.0,0.0020136632811727567,-0.0009346974316305872,1.0079808002283608,-0.1713500156082875,-0.0028203982075278365,-0.0006059858743124465
1180.0,-0.04855887437636714,-0.03352028550640182,1.0148290250976235,-0.02449140409706029,-0.0049712845790620625,-0.00780808115214138
1200.0,-0.07505362571426034,-0.00015189313865356357,1.0109251907853245,0.0540664441524694,-0.009118814516055281,0.0061039813543227244
1220.0,-0.10435102141728783,0.005657247300534847,0.9954546566471048,0.2076530437911031,-0.010325745838683738,-0.0014876042384453986
1240.0,0.018095634746946195,-0.014686945340002958,1.008085820697374,0.1914080879061675,-0.016910399138383412,0.00023786651479554171
1260.0,-0.015953419582389695,0.006037598911103022,1.0524465998667536,0.11179938902811883,-0.010258121453158993,0.0073885095793233685
1280.0,0.10216469500316809,-0.003474295713883793,0.9520608641818454,0.04869867539532431,0.0034999982661672317,-0.012027842967015269
1300.0,0.08732703655351814,0.03355649996158224,0.9821518092296869,-0.07262688131043644,0.004518268549183221,0.011214019236794577
1320.0,0.028251733631204857,-0.009138025701260528,1.0139126800791949,-0.19286151528227322,0.0023557905609701254,9.9977573292893e-05
1340.0,-0.07099388123613071,-0.012430500133920948,0.9902862380132714,-0.17549338593324026,0.00315862869493436,0.019259053408059994
1360.0,-0.05778959390280583,-0.01772475552253884,1.004522564367784,-0.1606223048084063,0.010337083658220367,-0.004913414104537302
1380.0,-0.012718913336858753,-0.010385594266682951,0.9981003944932141,-0.04774618557001092,-0.010802418439402937,0.006227665854818137
1400.0,-0.0839526917083644,-0.006629200208214962,1.0278608339237532,0.04890271464374941,0.004796492587231697,-0.00707498300112102
1420.0,-0.03688598146859859,-0.004467302004347964,1.0187316489974239,0.17911541300691086,0.00817415730377777,0.006768929781465923
1440.0,-0.010445607276440633,0.02071769283347787,0.978164315032369,0.18907850576791843,-0.009799237734657316,0.010873194816197721
1460.0,-0.02225926520151046,0.024146114707797074,0.9947246282059081,0.14362017293492912,0.011987778516958026,0.006874982895460482
1480.0,-0.07555983021917734,0.02233828112416101,1.0390022798575953,0.02535189288031092,-0.0018704240190780329,0.002375232862991469
1500.0,-0.019979833293413886,-0.006136943340963659,0.9754188123735146,-0.10638119320202957,-0.016972280465380792,0.006744896440904601
1520.0,0.034469316595606536,-0.032299107881193174,1.008060008426386,-0.16477523125949473,-0.0010603283936676624,0.004615267576266052
1540.0,0.029554110650041716,-0.01286891619688081,0.9912787809633538,-0.19502282190499218,2.363911666055588e-05,-0.008022511683435693
1560.0,-0.058727038831026944,0.0034139263902569794,0.9917011030362797,-0.13056712455265096,-0.0037532691994255625,-0.017193871463937162
1580.0,0.06615342848390263,0.0149310330969163,1.0334031496934573,-0.014481486571207553,-0.008723122940268975,0.014572901638876083
1600.0,-0.05869607606585555,0.009219379770532657,0.995536824218583,0.08949231838277354,-0.0005146065440591216,0.002943032630361426
1620.0,0.02455379908429922,0.013809961558867895,0.9986375006781576,0.20462177210903587,-0.009257279906963775,0.014679968585958755
1640.0,-0.02786276859900575,-0.010155484078082458,1.0083411311280575,0.18940611693685058,0.01983925477400542,0.0013458080715191608
1660.0,-0.08092400063065233,-0.01951258714603522,0.9931528071052612,0.1491432979244182,0.002155018430031029,0.010230932860528072
1680.0,0.025642783715359815,-0.03580739019902638,1.003015144330967,0.00730503868158144,0.011863271656556179,0.00028284370699185716
1700.0,0.03319445996669812,0.006749465127571497,0.9824085971646966,-0.096270081489359,-0.014434622967590125,-0.003293673486196017
1720.0,-0.044658063435594406,0.03143598561838035,0.990536734217315,-0.14373147987285875,-0.009848363270610894,0.009001225233883714
1740.0,0.13691299516913327,0.01952344899704471,1.00370691615209,-0.19634416197830315,0.011202120229498201,0.005469166640207975
1760.0,-0.02950205170958588,-0.009691429211827864,1.0519746634991893,-0.09474136193855362,0.016998085761730265,0.002135688626198489
1780.0,0.05135092725036202,0.0017804988548549231,0.978412368566512,-0.011897668367513919,-0.0037651889622497044,0.030339559768654937
1800.0,-0.005073499835082483,-0.0230289877802567,0.992459739191474,0.11113430035043582,-0.01291713443525579,-0.0027489594937983096
1820.0,-0.11163321911690088,-0.016228942012899192,0.9882522183253905,0.16813845415714068,-0.011388028130043875,-0.0005619746059495248
1840.0,0.021249024700266357,0.007984060429117742,0.9887700383010907,0.14348465461972282,0.0082033568384705,-0.0006722379418657106
1860.0,-0.006629067572573671,0.0388578724894264,0.9932205954477357,0.11364044985143812,-0.003932745941939309,0.012945912828989587
1880.0,0.03954560510461507,-0.030244721098467108,1.0358484875413916,0.02405554383246572,0.019901331740516615,0.0017885999313009546
1900.0,0.0030734562347587095,-0.0146708644378932,1.0009588644960066,-0.1472070488870445,-0.0028424099424047412,-0.01648250844725444
1920.0,0.026088740381230664,-0.026482225792959106,0.996662928386866,-0.20644204570554228,0.011075479349041125,-0.0013563410035192828
1940.0,0.01326056296231794,-0.006918476814966188,1.008543708229798,-0.17203668861572097,-0.016612679593970742,0.014631526585742015
1960.0,0.004831942589333292,0.006417396206077304,1.0181675981084477,-0.11168560275133085,0.0016481320592472185,-0.008647080511945305
1980.0,0.08201210659085659,0.014887002002259273,0.9847166193994419,-0.01344969653917835,0.0013369416960156845,0.014503604452673374
