timestamp,ax,ay,az,gx,gy,gz
0.0,-0.030925612887399912,-0.0078673686088935,0.964986446201663,0.027751499960073256,0.0015505312846094896,0.0011275535681315597
20.0,-0.045576004965135086,0.012680571824492058,0.9909136691991361,0.12492527186230781,-0.011895174248707691,-0.016703339885929494
40.0,-0.03239955834118879,0.032871609715156895,0.9826194685806587,0.19612556615313367,-0.015313360561881042,-0.0020962358323320445
60.0,-0.0409895481286108,0.027737750692995427,1.0245628360077248,0.14966707782471422,-0.013805845632386033,0.01314470303477778
80.0,0.06135841435913564,-0.02628423803476693,0.9734920422979949,0.14568637525814113,0.0078088986172937585,0.008921570815265328
100.0,-0.014156246221798539,-0.003482990919186982,1.0051850177206454,0.014800176945947034,-0.00032301354329053596,-0.0005357935337472512
120.0,-0.06749598070743872,0.011315239388677883,1.001441112656837,-0.14026638661748214,-0.0023737132223586124,-0.0004951009042278895
140.0,-0.038244584171596874,0.021262420566469677,1.008784975665179,-0.21361644523225864,-0.007971587648777008,-0.003789512010090897
160.0,-0.14161186453929397,0.0017936392658932934,0.973207627690745,-0.17995547638298165,0.0017008240015807974,-0.02167066622644503
180.0,-0.02484132076801084,0.007993801008118149,1.0260336945428428,-0.08028319261470898,0.0005487352596751848,0.011545908832052901
200.0,-0.07356774352771897,0.007827190347583978,1.0096535382530845,-0.011277939021163993,-0.009127226163306492,0.01697770801285742
220.0,-0.023089946153815665,0.014512592431404198,0.9959181739423487,0.12873781842740134,-0.006020394000548593,0.006797524256873959
240.0,-0.0167301382250502,-0.021330065837285743,1.0102135965658863,0.1683954476167869,-0.022151811615745025,0.0001992061224170109
260.0,-0.05422879499935294,0.021330465454691024,1.0039243734382635,0.1633264357420325,0.01778043939598003,0.007107040902507162
280.0,-0.08567882402392801,-0.015199694982452739,1.0189760397913246,0.07663013184313971,0.007881354777631579,-0.0048307170971827506
300.0,-0.2375432576890631,-0.011714917426108655,1.0123614146908617,-0.0256164526625637,0.003977862181316313,-0.010077655965075448
320.0,-0.19324299897106534,-0.021328832215975004,0.9379063248507616,-0.11217145186085244,-0.004955757277931055,-0.020297279840583493
340.0,-0.23907592812950096,0.009883303269537617,0.9733406112589822,-0.18920981839372733,-0.019716555481919546,0.004086844060905678
360.0,-0.46359566188499485,-0.01755458603737976,0.9905098933681054,-0.1486043517814613,-0.008045755531337889,0.01159784675398136
380.0,-0.5112873974390885,0.007369395796076881,1.0246879179510102,-0.09466425176432298,-0.0023585376592436323,0.017672970049993294
400.0,-0.5135413468847024,0.010598708276571157,1.0109046462654478,0.030425027473975748,0.004862904632892376,-0.0006301660650199011
420.0,-0.7067765357250728,-0.0015475251879622882,0.9984842621889193,0.1389274941795688,-0.003178245702241692,0.004994198339890889
440.0,-0.7305495203980025,-0.020787933690085567,0.9900644961349074,0.18528551338372093,0.008248621492382759,-0.004529878853731379
460.0,-0.9744092991447535,-0.015379564439762681,0.9832296350093095,0.14489015029447885,0.006083942803584783,-0.004849692894514977
480.0,-1.0913466242217484,0.01353626362376395,0.9760293282580066,0.05592116916507155,-0.01392782079993732,0.014203327261926087
500.0,-1.1873576262928776,0.018793545038639687,0.9817065032840825,-0.07295212043197047,0.007945851056092069,-0.0021655330039511435
520.0,-1.280524715803366,0.012531011321251045,1.024866353892804,-0.13860746584374345,-0.0070122593469265845,-0.003303148271646957
540.0,-1.3698475411365036,0.00913933944938841,0.9808218617297476,-0.19853874959590215,-0.004441637112077325,0.009355650786687528
560.0,-1.4759421477279262,-0.011490862412254166,0.9830014893511666,-0.1821964801139372,0.0026412567380728674,0.004881159171745248
580.0,-1.5220527970011426,-0.0012924146982885901,1.0108050169548737,-0.09103831457423611,-0.0016513949338320994,0.004000439109788611
600.0,-1.5613971056920686,0.010248616507818019,0.9942250669229048,0.03815688769762923,-0.0044300363470205235,-0.008266753506049976
620.0,-1.5432470691365507,0.005024200845148473,0.9643964525512204,0.107092532613483,0.017582466906785225,0.008877448992519006
640.0,-1.4502500843865755,0.005537806531831874,0.9762530264659254,0.1825160054355576,-0.01218207211879947,0.016306759943216523
660.0,-1.4121419579899868,0.011078143114153853,0.9913535966178799,0.1676675707538447,0.005785555394521823,0.0018750269740536135
680.0,-1.2400387621832545,0.002153975349917416,0.9844521437738909,0.05507084464461811,0.005316752747510391,-0.006487236390033147
700.0,-1.156002736282487,0.0027453875906413893,1.038635843509336,-0.08118480144745763,0.006247132668990376,-0.0001603887933843693
720.0,-0.9490087028944503,-0.013238747540977341,1.0038619518180127,-0.13993915439897064,-0.004281813592453046,0.01642928608675872
740.0,-0.8620322353409547,-0.01894896632500499,1.0225430750807811,-0.2180427679110265,0.0004110046778505553,0.0007940297710519844
760.0,-0.811395113420714,0.004706726258363132,0.9922962377580997,-0.11668562670199106,-0.019983071115709922,0.010117669151108328
780.0,-0.6010323570304416,-0.03275468430459409,1.0031914779141873,-0.10928092340291651,-0.007877532305158343,0.021124816998807642
800.0,-0.5850369473945585,-0.0009206376888186789,1.0000607442721101,0.03262984774281763,0.016770446196742887,0.015878813447920734
820.0,-0.38777482715448497,0.028765479097858062,1.0229375646136347,0.1356005759026408,0.014338545330773882,-0.008693241589477065
840.0,-0.2870929552978347,-0.0183848801778269,1.0252827101876738,0.1843954214660602,-0.01982528406862744,-0.011343724539646717
860.0,-0.19259097220802363,0.0035777668100096718,0.9799289488328787,0.15637762673877684,-0.0009021599226624232,-0.010185173007455126
880.0,-0.10221740314630234,0.011784744956122173,1.0197172386451463,0.07580771407926573,0.0019461001114677258,0.00326606649602
900.0,-0.18756614938282165,-0.03198470612893749,1.0011213258832434,-0.06498523312210958,-0.022418489122541678,-0.00971419434799947
920.0,-0.1314701158910652,-0.00616785029716031,0.9739031803659368,-0.13520784443442901,0.00445448965656119,-0.0055457894695838655
940.0,-0.07368738085940403,0.025171211541679714,1.0215864883743504,-0.19208380189239552,0.009177935797920915,-0.008531012926575071
960.0,-0.13724359728758828,0.03463062213805801,1.0032703374956193,-0.15628343142163303,0.016312003391788035,0.013046977968758462
980.0,-0.05026088781758574,-0.003961211189645604,1.0000069908584863,-0.06852658783919602,-0.006742865395582565,0.02419125858788221
1000.0,0.012900196174034623,0.023549405027269647,1.0417289035461514,0.0693110316128347,0.006006058857519057,0.002002754876685612
1020.0,0.019883575272380844,-0.0018650076551068023,0.9796052648748401,0.17234496516526782,0.0012488071604866114,0.0038564486528672305
1040.0,-0.0011177285240208858,-0.0021811434184585313,0.9828925468720947,0.23653205886942985,-0.008805598784751921,0.009399462609513668
1060.0,-0.0030545820355337024,-0.008663361068004137,0.9625174340706362,0.17786567504628858,0.018445719100522312,0.008645105579483467
1080.0,0.00046202466712404796,-0.0073017106678934995,1.0151595931638009,0.03419972986850941,-0.00015948702979985674,-0.009764820686999041
1100.0,0.005635217365152125,0.0022255139200481468,1.0198912452612177,-0.05968636463134851,-0.006968729766141883,-0.013330750127959187
1120.0,-0.018875127741292273,0.005001283693095133,0.9905537274012575,-0.1398186948583302,0.014281950183128151,0.017665768797106855
1140.0,-0.07574268780351014,-0.0006009290345971611,0.9814576974293238,-0.19113186668951243,-0.0026331762617439664,0.016074663187495238
1160.0,0.04407884319395479,0.054581075543002885,1.0148288012499735,-0.1417044433981298,0.004258176353701601,-0.007179015760894547
1180.0,0.005089618234128047,-0.012198588774492144,1.0023255352042064,-0.044608167554946315,-0.014361235825904109,-0.014669490755793149
1200.0,-0.04194344248966334,0.006868011668654027,1.0183448096038534,0.06592966305595675,-0.010524693350192934,0.01276217740821493
1220.0,-0.09124331149740973,-0.0016246201352658812,1.0082206864773897,0.22556107696329458,0.007740510944338808,0.0225427273484344
1240.0,-0.04095119095025285,0.023567901088126255,0.9930889145759473,0.18384227085388813,-0.011055073677579878,-0.009472457170795258
1260.0,0.0426479833483948,-0.010082515588923322,0.9939643241530016,0.1628311453092214,-0.014965612214613464,0.002311485444865279
1280.0,0.028787340345652123,-0.011474063506830447,1.031004755969205,0.07771209512912026,-0.002217210419690038,-0.009542057844409329
1300.0,0.0522419987888722,-0.0038125949368846552,0.9983460660677745,-0.10771569519843452,-0.0047075743464915975,0.0064102906629362535
1320.0,-0.040970716825519664,0.008140406066299717,1.0045667517309325,-0.17186391411789476,0.024626873173821125,-0.005982807257844874
1340.0,0.01565436525332155,-0.01912535665463113,1.0200479389757986,-0.21620087438085697,0.009533444487270509,-0.01484362839871577
1360.0,0.03493112315435257,-0.004168614363839299,0.9916206837320305,-0.12322788320559394,-0.0064745216502014894,-0.008952821671235445
1380.0,0.04718984435407734,0.006393835455970476,0.99716634783199,-0.050030227435321574,0.00713321341175062,-0.0029388770143812994
1400.0,-0.006035003989904172,-0.037100774165082465,0.9975446024665561,0.06913348255041224,0.007121535279931566,-0.0005404253901986086
1420.0,-0.016521816700414284,0.01482662353376016,0.986253961607459,0.16412259040842353,5.553953326932038e-05,-0.006093165405787179
1440.0,0.038945737470359044,-0.022546466019116303,1.0234850429636397,0.206653127123619,0.007990613946615162,0.0005425531306973282
1460.0,0.03215506955475456,-0.030765040021702925,1.0081991157826142,0.1341253704770707,-0.005895637966460049,0.0009206702888278034
1480.0,0.06412358659292587,-0.008981320039154882,1.028239883103218,0.03639681191574829,0.008619713172246085,-0.016811109702724737
1500.0,-0.03127322801044783,-0.031833753609490895,0.9667053873679708,-0.06650442039783144,0.01466628739724794,0.004308602334321486
1520.0,0.025642542838518197,0.014343139014746415,0.9993877291565002,-0.1996168760957411,0.0007810545852434438,0.0001805616897208864
1540.0,0.023586702872108588,0.030401323739248438,0.9865136529583187,-0.2084757500781869,-0.007414818566778221,-0.0032618446872089224
1560.0,-0.04194691940880543,0.015614395457004228,1.0006121325140098,-0.13871866304452332,-0.00891602807563786,0.005657438558149486
1580.0,0.004105633129828715,-0.0014165767089754908,1.0025559886404347,-0.012685179284895437,0.0036222641275924805,-0.004760783093760433
1600.0,-0.056327375499451944,-0.022214803167630012,0.9603572275236052,0.11990379715407086,0.006883360929105839,0.002190890133746018
1620.0,-0.04687836247742924,0.011517319437913912,1.003552167593547,0.19802752298060297,-0.015382466132559214,-0.0012759193086826282
1640.0,0.016974068739483653,0.017889331501744113,1.0448170885023442,0.2301123636911041,0.0011164051535709498,-0.013512549781212656
1660.0,-0.14237236781380616,-0.00836064066481441,1.0086748845324334,0.14111865369957202,0.0057823738502949685,-0.0006845820013741488
1680.0,0.030866100912629514,-0.01009456313123563,1.0030544148397784,-0.01823574642156609,-0.021631392693609603,-0.00036372749048034145
1700.0,0.06046371847873796,0.01245036958290344,0.9603275565995886,-0.10363245297579271,0.0007566583030743412,-0.006308858527329336
1720.0,-0.05803963130071013,0.0051360466734865105,0.9575480499124848,-0.15285354564281944,0.0021474368344333735,0.005784337459024937
1740.0,-0.019734433038561712,-0.040817674500372755,1.0052508483294937,-0.21311696729378102,-0.00022439385029052322,-0.002323861702312703
1760.0,-0.02045119901753663,0.014022783090183549,1.0185214536799905,-0.10658306371186138,0.009782772746272948,-0.009124162271753635
1780.0,0.02475372335860898,-0.0027575170797280264,0.9950918832360957,-0.011596694650866728,0.005194757547317947,0.010068302478125141
1800.0,-0.11907751145735646,0.01766327011695399,0.9614139165670859,0.08315245720671413,-0.0017541869881981548,0.003889172467889368
1820.0,0.02504656849300695,0.007269446864742077,1.0161753581078141,0.18524985040189387,0.013482047128653274,-0.002287203153904402
1840.0,0.0005802457717102921,0.002683997087311707,0.9972737607386842,0.1950928947616895,0.0013913337307370599,-0.00531087671848972
1860.0,-0.037683791576076556,-0.011869396014939398,0.9790019237311581,0.1524532095042778,-0.01345605645056061,0.003943812719758424
1880.0,0.0005538493775203223,0.03804673943266985,0.966234662703571,0.0050282286585435765,-0.0037144211009545133,-0.00042473963867397513
1900.0,-0.06259699859047117,-0.0007284868515339802,0.9850485669347947,-0.10651321075516638,-0.007338824029681929,-0.002425327153817203
1920.0,0.0455928698781475,-0.0010797052997740754,0.9873305929261826,-0.19932584610043802,0.0021335764744828878,0.004629608312513068
1940.0,0.038596812811026504,0.013489166170826372,1.0281639791660433,-0.23244004758702883,-0.008080307478890922,-0.0021175925885248614
1960.0,0.039781451717756496,-0.01136487593135256,0.9701772022291857,-0.11380513234995057,0.0009956088451385098,0.008382360612739814
1980.0,-0.06065230205525877,0.003024693708067296,1.0163038348981381,0.001456607955651326,0.005016289707411346,0.007922599223465766
