timestamp,ax,ay,az,gx,gy,gz
0.0,-0.040208493003155786,0.021984301654057955,1.0270346436643618,-0.007366417185681921,-0.009530109411009076,0.007487417363094887
20.0,-0.03451613323658201,0.01584613515950839,0.9959053467860104,0.1011391457426624,0.002209224995067457,-0.007966932509162937
40.0,-0.1300618044252079,0.04623074612537605,0.9971949771251749,0.21276211488579147,0.0023520037068303933,0.0020415029791136722
60.0,-0.010943518887376207,-0.0025169928371886457,1.0191108570248462,0.1671453736450309,-0.02090557501313577,0.002357042805198662
80.0,0.004745996039075585,-0.015118908262428543,0.9984420610773133,0.12480393765662438,-0.00879475852840157,-0.018651140829450498
100.0,-0.10186264040182581,-0.0030388971772543215,0.997898468021941,-0.022790258327993997,0.009890457616787349,3.756133286312119e-05
120.0,0.0021474338407659254,0.006622051746307748,0.997175807316394,-0.14980030758179147,-0.008668530050811633,0.024863928037752815
140.0,0.008900629122483473,0.04450797824829219,0.9812571577516216,-0.19368432587533607,0.026207153365255347,-0.01788163241874324
160.0,0.06453977589413155,0.008415477939902138,1.0443503340237847,-0.19798079774015637,0.009179473386564847,0.010906746289224915
180.0,-0.015893954711062985,-0.019645607549575134,1.0197004714519766,-0.09658922211239468,-0.0014175556656467964,0.00789516673794786
200.0,-0.05540866785015343,0.012244287145938613,0.9693275733277191,0.020852603694495615,0.005915714889961762,0.008128559342604903
220.0,0.03338853743133124,0.005536197440494201,1.0167377348120543,0.1378781982830553,-0.0005083420948514999,-0.021891999005315018
240.0,-0.07449099628266286,0.002181447436779875,0.9911078167262245,0.19625338049180735,-0.019880741749314996,-0.0005382593603075282
260.0,-0.05475873704776784,-0.027748206673963282,1.0004193269253168,0.1680846677625888,-0.006787530308880675,-0.012322288301197443
280.0,-0.17810047068887574,-0.01976598405091828,0.9895818391028636,0.0796113846406191,-0.0068005154722531914,0.014379166089903373
300.0,-0.1100873958346851,-0.03321358419320591,0.9973340514484755,-0.018986942862679837,0.005268016729499816,-0.01185332993558085
320.0,-0.22556661438543787,-0.008948997603580455,0.9695115833980326,-0.15284084581704918,-0.01571106633734257,-0.00526041864138353
340.0,-0.21650709796235657,0.0038458600225631484,1.003173780800812,-0.217022225866838,-0.010443595324269764,0.010357825612222479
360.0,-0.3664164038676841,0.009051597171092584,1.005644219076128,-0.2184086336499652,-0.0015059450218185412,0.005775375139111487
380.0,-0.41165437799550475,0.0038713850912187853,1.0352772355180093,-0.08355442916372703,0.008906059146623384,0.003258082110092206
400.0,-0.5109229688144288,0.05534549729648097,0.9960059071084145,0.0053463827525977725,0.023184141468477314,0.002642185574893536
420.0,-0.719294462727368,0.010584601777505212,0.9938332750002837,0.12955290280696155,-0.013136804783919665,0.014238868148898187
440.0,-0.7747760250688629,-0.02321909205158649,0.9758727358961055,0.2211981677525986,0.002880213381983058,0.02585570961916157
460.0,-1.0434402890605252,0.006445215317899746,1.001370391594999,0.1696980923183795,0.008626470055514694,-0.008484768367178083
480.0,-1.0310760204921918,-0.04283514302342411,1.005148636190205,0.07760931442789967,-0.006174175184761022,-0.007945287770776828
500.0,-1.2131085571732863,0.021857080335498304,1.0131124585973572,-0.004337128986233781,0.002016690563538821,0.0033304848950653555
520.0,-1.2861025090459441,0.009426377758647776,0.9973398675148396,-0.15720884805225652,0.012605183120888779,0.006801516877953153
540.0,-1.4351034533000526,-0.0011042486263600508,1.0146048482633816,-0.20328277634622183,-0.00017702378113949703,0.005681775877291358
560.0,-1.42401818057482,-0.015705640814750958,1.0033043095930463,-0.20034864379005474,-0.00883956533497858,-0.001526051664660559
580.0,-1.5313125176675642,-0.006422089345906238,1.0061818498698625,-0.07799571100672914,-0.005649945034895547,-0.0034381120895089863
600.0,-1.5403900417863905,0.013980558437484133,1.0066090122043085,0.061330386079202694,0.0038386885271165755,0.000714497493606178
620.0,-1.4505672731464185,-0.001186086780150139,0.986038762808478,0.15202089760309065,-0.02040319279547813,0.015681463501423982
640.0,-1.4219486479780177,0.009403975450825906,0.9660289503737872,0.2031071018918117,0.0035581927006984953,-0.007949844451778307
660.0,-1.336102796663546,0.001880061629336849,0.9965054375120355,0.15047838066735894,-0.006763909884286108,-0.013369635961788084
680.0,-1.203876154650853,0.019871469652209307,1.0024931664063839,0.09656052927458594,-0.011365043078381026,-0.009699876644555197
700.0,-1.1181772870769209,-0.009767646355076083,1.003912851564234,-0.0433352728578173,-0.020933297112208895,0.008326341203502893
720.0,-0.969956262142167,-0.01207007463682563,1.015268963426473,-0.1533980817977314,0.0008111121123891067,-0.0017806693972874537
740.0,-0.9478900734613065,-0.0011806040867196387,0.9946682112233067,-0.20056860182019645,-0.0037662623117957488,0.006102539812632785
760.0,-0.7234110329697263,0.00023707561332261286,0.9835977247745951,-0.18087484126790587,0.013333015810810039,0.011455925403614967
780.0,-0.5686371657441516,-0.02416497254692863,0.998958328530187,-0.05760921841811169,-0.0004097789011309142,-0.0031718506846764487
800.0,-0.5590595537685156,0.0035159176335233275,1.0174874841942294,0.04180814279717632,0.02172445047193781,-0.014195126208747653
820.0,-0.38554174490111015,-0.0029568875988757078,1.0179984915026525,0.17508393812731218,-0.011901578771858354,0.0028104025549798395
840.0,-0.3447687814235217,0.008053346510468221,1.0112334460527919,0.20103451738549216,-0.001499714718569446,0.0047029661998756475
860.0,-0.2487514410300319,0.00726641528081887,1.0049278889677604,0.14633919503059334,-0.012743476247826454,0.0014767461159673914
880.0,-0.2690470180430458,0.013988188890442007,0.9810181494412108,0.053982163512861794,0.009940003477579586,0.001966468099167033
900.0,-0.10432873002957058,0.010742666529406779,0.9776298505471386,-0.056800848886860864,0.0077131977415227405,0.0017508747568462536
920.0,-0.08618309169433097,0.030630565265590135,0.9998658294588331,-0.15006590879116685,-0.009888624635381184,-0.00812490144419232
940.0,-0.029978972798020177,0.03072686768833454,1.0039732423251961,-0.20698740642330654,0.008002447555214297,-0.0006806687445990861
960.0,-0.01653171032249179,0.0015925814691111297,0.9938015023255583,-0.1374253957811892,-0.03430786215003393,0.007303167955918054
980.0,-0.008337506541762164,0.033824423236329906,0.9817083272879769,-0.0839581370124704,0.004732998333743057,0.006144493043753916
1000.0,0.04638166349480465,-0.02071146843116015,0.9841639869649086,0.04515904828059132,0.0087425504052511,0.010162969426762772
1020.0,-0.018505531946848508,0.04276987201707937,0.984018749647406,0.15504589189727946,0.0059701176047569585,0.009631784153494192
1040.0,-0.03556509403114075,0.008362291328895752,0.9974859006851649,0.18455064275321248,-0.007194199364035643,0.004155412946628785
1060.0,0.002953756754307344,-0.0024053752381245335,0.983004413946002,0.16057688477357818,0.017788206300260664,-0.014753800156036407
1080.0,-0.034349830545820303,-0.0007950471974312487,0.9736566407764343,0.05681740362506326,0.018093612085206424,0.014274452690801482
1100.0,0.014821921566870832,0.025088473035666747,0.9773104240622337,-0.032429008428463316,0.008420522001114343,0.0071805943346035395
1120.0,0.023041722155312628,0.005458977949342976,1.0089787406838016,-0.13605878482910294,-0.012175407691681009,-0.003529706875874466
1140.0,-0.00471707409911133,0.002980457537346318,1.0000132841378988,-0.17656228114885722,-0.011795518869313418,-0.004526427161377017
1160.0,-0.04172569291014371,0.02873831495190455,1.006765384547321,-0.16483913220394825,0.008986710235367837,0.005171872279077088
1180.0,0.027375744438002364,-0.013224783619261483,1.0059218412075186,0.005426627065767735,-0.0023953103132392252,0.004362924984141307
1200.0,0.0772359262283788,-0.009845484287982754,0.9922169368171142,0.10565339829041481,-0.006802068615655072,0.006422789944501559
1220.0,-0.09853605250842172,0.026098863359513995,1.0099929574179214,0.2084999960862729,0.024931655596295697,0.025337161100703824
1240.0,0.03477115478401123,-0.008645129636495767,0.9745385481196561,0.20068979848992605,4.7053283073794675e-05,-0.007025609322599452
1260.0,0.07571507811734533,-0.015164798003938218,1.0129048498521527,0.14390231834972747,0.0019686470070659086,0.008421932681673633
1280.0,-0.012527556357489254,0.013517341883094636,0.9990793282225077,0.049611467499221955,-0.0027379505417361254,0.00499914521938696
1300.0,-0.034293370845784585,-0.017248903971413793,1.0086139669290037,-0.07328263417195921,-0.007087643631192939,0.008219970790974541
1320.0,-0.07310976148404387,0.041069283010209054,0.9779959653973533,-0.14316302075034654,-0.001647641233721047,-0.007719021729695874
1340.0,-0.055854692797913524,-0.016270832780176363,0.9995763379014884,-0.1874390290996032,0.0008839462292151658,-0.021598186872908723
1360.0,0.031042551945948627,-0.03337470924182052,1.018923823954405,-0.1492441500144979,0.007289879812137196,0.0051560504036732594
1380.0,-0.003547931215936671,0.01662764004345141,1.0025654757033284,-0.040938186950949404,-0.00043894948737431555,0.004569467078247915
1400.0,-0.025991180296187587,0.020301138154554588,0.9931660119057505,0.0534165691220569,-0.007525567992253551,0.006691477276949544
1420.0,0.039046051104080236,-0.0017368820809153648,0.9808345583194226,0.1986766481280127,0.0003819234458421761,-0.0077752410188004295
1440.0,0.05232836006905123,-0.0031612782458943457,0.9774329296830131,0.2050264637309461,-0.0036876719508040934,0.01905569211173834
1460.0,-0.06684602980228088,-0.008236061177736566,1.0258837702013965,0.1672980008757105,-0.00847600882614815,-0.004641723344118163
1480.0,0.01401812370823879,-0.008148519000814909,0.9727332912241243,0.017229224408615205,-0.012007236704814093,0.006707526905613271
1500.0,-0.06500241028099134,-0.054341935408912606,1.0172653752597898,-0.09794862437439485,-0.0001209006690601267,-0.02089936392158106
1520.0,-0.01039280998282181,0.03854612620407144,1.0111616825472534,-0.1869292443267022,-0.015246041823452938,-0.011223406207521687
1540.0,-0.039203451137918593,-0.01966115393265481,0.9826935185352706,-0.2010467866644096,-0.002148859439134869,0.0023763648983504805
1560.0,-0.03715816484694341,0.007931240044154918,0.9767302427698779,-0.13196087825522915,0.0010279459156047508,-0.007848021326667539
1580.0,0.008623114716049936,0.0020340977449457153,0.9666170936597955,-0.0067546320646061815,2.2979437164543923e-05,-0.001069205939675279
1600.0,-0.016285218955544165,-0.020660420376123714,0.9755242521311072,0.10061864242880995,-0.00042660641667478533,-0.0003213131950853771
1620.0,0.016667612095233472,-0.01558944048118169,1.0143889683072453,0.21793186109317675,-0.014355983578996803,0.011111718440134491
1640.0,-0.008719686553319082,0.019204513818254436,1.0098598927921238,0.22626632451719966,-0.005528797827260582,-0.0055653579760591735
1660.0,0.07281228965857399,0.04316742320310709,0.9735541145378024,0.15106181169175106,0.0032606963146110325,0.008299930903410297
1680.0,-0.022462984475165128,-0.011948036208093817,0.9798037154679557,0.03176238762626379,-0.00024028119152945973,-0.009490849886134136
1700.0,0.04075972598605638,0.010337773736918434,1.0109782906098783,-0.10865700818838674,0.0010242960580735972,-0.004266416515945445
1720.0,-0.03469607051742258,-0.032045997646433046,1.0412174217845092,-0.20613239301085856,1.5974018078460407e-05,0.015144335115824664
1740.0,-0.09560687481811214,-0.01125083830407619,0.9680709978713723,-0.18625562611349417,-0.004867253887964859,-0.0025130159065380317
1760.0,-0.027814607590313463,0.03155969428734481,1.034338062493553,-0.1385473026381056,-0.006257826973415206,-0.006223164431337126
1780.0,-0.026175433020753813,0.046889393609318895,1.001656232375955,-0.016224870077947203,-0.014539041038518458,-0.009380922497319142
1800.0,-0.03243443231037854,-0.013900194901840602,1.01222240041544,0.10461321711629827,-0.0018734065374231487,0.0024629848704052575
1820.0,-0.05148475382989346,-0.02040583172514681,1.0467083055471798,0.1842774900422175,-3.600882471154629e-05,0.0037516362989771825
1840.0,0.06064617901168184,0.002658473940886997,0.9931218773285656,0.17032049765871066,0.0013505275615740312,0.019556782485961113
1860.0,0.004683392095979438,0.017441497004420523,1.0067977924634564,0.1338239212156498,-0.003227310457289199,-0.012202408598910839
1880.0,-0.02628314573661202,0.009026354977402546,1.0289318531242322,0.04714791619305811,0.0053106218911570255,0.0013073167751917526
1900.0,-0.0730522216761014,0.011433288505512241,0.9925209146685903,-0.11347950589227455,0.02167903228812102,-0.0003106952269818789
1920.0,0.03810391289238469,0.003745031390579083,1.0322157969051973,-0.20464854838383723,-0.007571242290831496,-0.008299692055072892
1940.0,-0.019960209197243683,0.024736274390888623,0.9969968153869039,-0.16199397218080566,-0.003838680594212915,-0.004468397976028456
1960.0,-0.0816523162872012,0.02457295696624958,1.0220111365349598,-0.09560046779001614,-0.01988070373653036,0.0059662035415262975
1980.0,-0.01350559794725626,0.00042263972545739597,0.9776245771805157,0.005237139052311936,0.016895923527727584,-0.0010181926148193075
