timestamp,ax,ay,az,gx,gy,gz
0.0,0.007373005096181112,-0.0006161074896222384,0.9647828618381358,-0.007768072362495091,-0.022752258539873078,-0.008734265539664198
20.0,-0.0649783613781456,0.013553161767539536,1.0364452297889912,0.10243353295217249,-0.005438250042045055,-0.021424268492613193
40.0,0.027508953095779498,0.009481023172141351,0.9870759353516665,0.18962538513889612,0.0025544766827528356,0.004759406387109976
60.0,0.08187440537012206,0.045204776497949906,1.0092586787772575,0.16901569353889465,-0.005757353964086176,-0.011262698362145147
80.0,-0.006055472580361174,-0.019117486958333898,1.0040094739812544,0.10911942957401594,0.0010168046657826678,-0.0015493497423741363
100.0,0.01324189909120908,-0.01729339525515045,0.9917348590417812,-0.03850645866998255,0.011230038112907167,-0.01303600694036249
120.0,0.018773041927097753,-0.03347539973166326,1.0065843535420778,-0.1023550591519019,-0.0026068378761557555,-0.022415240902040372
140.0,0.025469790494818317,0.028052674098796603,1.0034139566171278,-0.16225634308026324,-0.012434436894826996,0.013633530961120105
160.0,-0.04666465792890838,-0.0009449397378923062,0.9841789755863841,-0.1741990363756555,-0.005284473923005896,0.0031851557314016015
180.0,-0.041213498402596103,-0.0010050818672352653,1.0086212013896818,-0.1398233108345722,-0.012230217201806773,-0.004043644702679364
200.0,0.0004764207209587215,-0.028495288162850883,0.993653084850175,0.031106140150626523,-0.008689568214733618,0.006657521574860911
220.0,-0.030121037618729585,0.00019758838903941953,1.0145429875666334,0.11542153250716844,0.0002490718241189458,0.004169598344004223
240.0,-0.08745366965780277,-0.02474289738753043,1.0228770368045907,0.20076140845099488,-0.0025404334129298907,-0.005470340435596181
260.0,-0.09956071205101324,-0.023715267214399045,0.9993130729606887,0.17848810264033255,0.009973125677401294,-0.005714183015285908
280.0,-0.10054737784297238,-0.0006389604498343659,0.9733081030723895,0.09110398016276161,-0.006002260155855672,0.010342149628013227
300.0,-0.1780755526920442,-0.04046881757100612,0.989124616775623,-0.007700388359868313,-0.00031283188556690796,0.009362570669259239
320.0,-0.2708556671477844,0.02065444307337728,0.9893969834997896,-0.14066074488339936,-0.016461441273049708,-0.024337363561586473
340.0,-0.28869738036158343,-0.023778549156686656,1.0255617002190958,-0.2140397292653719,0.012690927728212294,-0.00046565182551304993
360.0,-0.37318388215953596,0.030793333411952475,1.0403666645783811,-0.17097960673722573,-0.0022513139959413958,-0.021281638515108055
380.0,-0.5133291253045406,0.004537545870814139,1.0104501808426425,-0.11050151269591439,0.009607028879406846,-0.012961912640939894
400.0,-0.6688471797904191,0.005416813175217031,1.0312595649341034,0.02641408155771594,-0.0019289690808598004,-0.0014623119070563456
420.0,-0.6376009425346438,-0.044297788266337734,0.9921800837095841,0.12944916428025405,-0.009204130713951543,-0.014730343040011076
440.0,-0.9336125941562284,-0.02017196289842857,0.9401738368934255,0.1715289249515308,-0.01575365738970683,-0.0015258280816869449
460.0,-0.891759246862351,-0.01203422607630181,1.025969101488834,0.1611663261231105,0.0072048456160061225,-0.011474385468634305
480.0,-1.141596973524486,-0.02970324240905995,0.9674845932668935,0.09448358445448747,0.014732642958425041,0.0014063973855395473
500.0,-1.1552420571572588,0.009118330962377207,0.9977850348280641,-0.0006492670382821121,-0.019152554192651043,0.0033224333167248517
520.0,-1.2992671578874275,0.019289888345131026,1.012398333456144,-0.15237253209528775,0.004312524899424709,0.005277331889028631
540.0,-1.3968025594465827,-0.03477212862749692,1.0260851933088198,-0.17775223357396505,0.004267791559541771,0.0048057697061757295
560.0,-1.3945978915839272,0.029994064670784044,0.9836398190615939,-0.16860464342010575,0.015142595880029199,0.009065890535275577
580.0,-1.5053455181635598,0.026853647642147063,1.0105255134019189,-0.09169575286755219,0.004780753961873474,-0.010417829232573195
600.0,-1.5427725086342963,-0.008618999689087681,0.9889088950352896,0.02694770350412103,0.007448738915781567,0.013733636352101689
620.0,-1.4558551047114137,0.009203850238195473,1.0312776775335728,0.1689772917248024,0.008373104221783485,-0.002574680720378163
640.0,-1.439156501062438,-0.0007392080716282461,1.007870595742843,0.18232963233787874,-0.003841285972055704,0.009738512224866335
660.0,-1.3347609632317423,-0.003157665347391241,1.0050789505368216,0.1627423295569734,-0.0035010417667332393,-0.02113653891531465
680.0,-1.215054045712451,-0.011250152788189227,1.0044206409012926,0.06834708649855689,-0.0002861697102288916,0.004198397516721249
700.0,-1.194596317916628,-0.029562429877146204,0.9945208821605314,-0.03982863949503933,0.009785860094128023,-0.003467130161324868
720.0,-0.9190046002033381,-0.004656776652622056,0.9582817318330558,-0.14554454321764776,0.015475061241236382,-0.004374442880512919
740.0,-0.8347477737457328,-0.00093186157198275,1.0017511826527568,-0.1970994029753146,0.004734496643843728,-0.005249407824406016
760.0,-0.7438610625737979,0.0058353596894280815,0.9825033620060332,-0.13633899098388577,0.002594408555685174,-0.0007807759484606297
780.0,-0.6651451167029379,-0.011829381783654782,1.0468606335221387,-0.06842935381180226,-0.006139993516834176,0.007003067576850683
800.0,-0.5023025164281936,-0.0014763085676212642,0.978622624259983,0.014825078106636032,0.0015627123149903758,0.005268939438481587
820.0,-0.39550849358460044,-0.049270663884187195,1.0346124539486734,0.16193126142571998,0.00010243184262707941,0.006759596653274263
840.0,-0.28275158698074343,-0.020434236247199974,1.031461362679868,0.18678513690886134,-0.006204038885765736,0.0001015402847720148
860.0,-0.19295228668154035,-0.014345931639098305,0.97889505955503,0.18194587130538217,0.005321324826702361,0.012991813905113338
880.0,-0.2709489154643336,-0.02165689594244494,1.004970131764738,0.05743871506921332,0.0003904022891440375,-0.0017733503448228883
900.0,-0.12108614871988974,0.01138723205704961,1.0014405438268978,-0.06450176685924124,0.005732094631841255,-0.004655517069906302
920.0,-0.056340545931112346,-0.013994557352559197,1.0009217581091834,-0.152987791677399,0.00864686011153795,0.00677500923060573
940.0,-0.043401455081295115,-0.008308548358991157,0.9821621929176897,-0.20138630710767044,0.002401156644404866,-0.01080861018816298
960.0,-0.08678123955558793,-0.04525691732822213,1.0641742727225343,-0.18156798005067237,-0.004529543194988319,0.0025115122789713474
980.0,-0.13342966850802435,-0.007923257369320359,1.0101084856518006,-0.062398209652755866,0.0030021480661573956,0.00012148403960950202
1000.0,0.023388289089419888,-0.003377833023140517,0.9896329779070421,0.05746791677364013,-0.006759560711066878,-0.014023020943267281
1020.0,-0.017407796533664047,-0.0070178558378637115,0.9835285555035979,0.16101422507602406,-0.00806084123942797,-0.006366965171489747
1040.0,-0.020761047983321745,-0.005825951806516168,0.9924017219860742,0.19710215886102228,0.002408626795276374,0.01940637638294312
1060.0,0.015537832825955914,0.009338954474576012,1.0101479489637237,0.13199394468234446,0.001449957912038921,0.017810363647063825
1080.0,-0.03021385983822208,-0.010492997367274534,1.0290434508516053,0.058721580016816766,0.0026074434132741737,0.0019508124206979289
1100.0,0.029791536984220393,-0.025846043742624857,0.9828230289798424,-0.07460010691711211,0.009685221287060172,0.014069600806610549
1120.0,-0.0050281689536872225,-0.026595165831154965,1.037185967265879,-0.18721026603179744,-0.009099211261875085,0.02018343377724745
1140.0,0.11164031369527426,-0.007854545633828054,1.0199825359918655,-0.14385859519686056,-0.008704399559043813,0.02226227181909937
1160.0,-0.012074902879225873,0.021578317920454056,0.9710044328795379,-0.1401048620048438,-0.014874605199805728,-0.009774010404550471
1180.0,-0.018697624738029373,-0.024488037658652716,0.9970291386005463,-0.05396130851878169,-0.005724670370750377,-0.002760102607795194
1200.0,0.0009954450488987242,-0.019478166713230372,0.9998266053384869,0.09032484619772575,0.0027851312416767257,-0.019471222536720942
1220.0,-0.007018271689090082,-0.003512609509051467,1.0138656577447769,0.1576085792637236,0.002440728625563892,-0.0007031523834867382
1240.0,0.07327521980204685,0.018131058870204116,1.0120161796442506,0.2118180441418515,0.005352091902201353,0.0037078312633466617
1260.0,-0.12165738232430243,-0.014560913667157668,0.966168540149274,0.14959990697565934,-0.0006318425536446605,0.0025127420390052045
1280.0,0.049282786015012854,-0.0010599023895573477,1.0038377419429376,0.05119898166113226,0.0009650984389569364,0.020563662224248578
1300.0,0.012317949113533273,-0.025967436727072215,1.0084167100627583,-0.07350118373037612,0.003213283861436457,0.010993425285561922
1320.0,-0.007198785303411271,0.010843730939317777,1.01368739189916,-0.21033012211200944,0.008288960517431802,-0.017338701926827876
1340.0,0.027200361282084463,0.028600337019752033,0.9689573076240074,-0.1782109963966961,0.0006749962866256039,-0.002221141520635915
1360.0,0.008030485432281822,0.01679484617855471,1.000112656765012,-0.1491643178662108,-0.012037699190170814,0.0014866046241236966
1380.0,0.06056301513857011,0.024433089870108567,0.9890958486406174,-0.04730900761851069,-0.003036803448874691,-0.002821771279443634
1400.0,-0.053010454392094494,-0.010984113623730193,1.0019304574738481,0.09405428825499465,0.018770814440576343,0.023840919080597153
1420.0,-0.07996938585051085,0.01135989939420814,0.9819319842365879,0.16071006826089287,-0.00028974441392001305,0.00318259839989068
1440.0,-0.006653272368432499,0.03006906331607425,0.9554062256352274,0.1728517208470642,0.004036340750968359,-0.009988053445537676
1460.0,0.1164954412059574,-0.001301682525742737,1.0053339362486067,0.18492013220085876,-0.0012755676175383052,0.01165465879054131
1480.0,-0.03415950423113948,-0.020534645357797074,0.9849670548150493,0.03520051838521945,0.0024609592628316783,0.0008665632242831667
1500.0,-0.005493628667972251,0.018486911440098307,0.9752675288107968,-0.08774719562760476,-0.019606060822183382,0.0021897703635284965
1520.0,-0.05331579842006025,-0.0036343213764046377,1.0247006107589685,-0.20123851146879554,-0.004714343572304974,0.0018828879801958706
1540.0,-0.14149094731578518,-0.03877410352649862,0.991085343221162,-0.17332706652475316,0.007992693190785773,0.012022763099303673
1560.0,-0.07752710335193999,-0.015492965894525961,1.0100322704375693,-0.12270408274907302,-0.001118342600285451,0.0033429146061786635
1580.0,0.06306500490941847,0.0034226681140766776,1.0037170810602336,-0.06335628531253877,-0.02714873853105431,0.022623839562886043
1600.0,-0.054513558470541644,0.029072871905090194,1.0029494674103587,0.08859956906177462,-0.0030234296453007133,-0.012748287258910213
1620.0,-0.002065641333186503,0.0036573977926647634,1.0093260533381747,0.17788440805391967,-0.015521522152928598,-0.0027425810826122517
1640.0,0.06341372440185346,0.020349489801884783,0.9794172974968048,0.23207006651462303,0.0013435285773652887,0.009024939914340066
1660.0,0.008314716791001696,-0.024557272427698364,0.9604435694252548,0.1266607006331163,0.0034084878919821426,0.013202338552764328
1680.0,0.02185820346844295,-0.03258611627515206,1.0034056596786902,0.019284832023879133,-0.00729753768706238,0.008726471472707725
1700.0,-0.03879550704138777,0.007752297151254571,1.0215909862088624,-0.07039628388254913,-0.006782405073007344,-0.027466939827666043
1720.0,-0.018622112465199625,0.008975050451926505,0.9742937113818753,-0.18138574210227726,-0.00927577832922324,0.006829024193508405
1740.0,-0.05245463435482274,0.0004122842367606833,1.0012361762157487,-0.20467040931081093,-0.010178796053442216,0.00750255098730601
1760.0,-0.06441011552430294,0.00033065850714159034,1.0313408582673098,-0.13507612214204187,0.012345520238680923,-0.008114245609851318
1780.0,0.1450452433261313,0.010046403416639059,1.0178906836284343,-0.002196693941768954,0.017125943899268758,0.001166017792766933
1800.0,0.04851415257256577,-0.03368684772263936,1.0196525519752555,0.08514452851066065,0.0013318406201765168,0.0014103229201538516
1820.0,-0.03552019673354453,0.011667369190440119,1.0180678828960947,0.15208268896533042,-0.012858502536048788,-0.0019445131948366335
1840.0,-0.03944501028119294,0.020950609914276483,0.9832925552368906,0.1831534980156635,-0.01647878069546787,-0.009613992512820002
1860.0,0.003067831872227846,0.024065539327909037,1.0113540561096852,0.12160168065024408,-0.010178525905260794,0.0011937680431437746
1880.0,0.047258358023164,0.014635299654029,1.0066484521408556,-0.025238100699130843,-0.010886655226712812,-0.0007819670931982704
1900.0,-0.002940806707431442,-0.020667925332932904,0.9994504302413758,-0.12869590331339165,-0.0037405846653982716,0.00851037212226583
1920.0,-0.024206111295361505,-0.033963595638258515,0.9995961495297423,-0.19493671655554123,-0.010280281898095274,-0.020125582330881055
1940.0,-0.10085899119429992,0.015324931977255016,0.9819001380866819,-0.2114352260171899,0.0010559532627603394,0.004687733110403254
1960.0,0.06841105404267603,0.0017898262992293154,1.0033878749055833,-0.12304415603107004,-0.011856025013396537,-0.019090572780395866
1980.0,0.005244164691626098,-0.0032920559189018256,1.0296959792851181,0.002271242407555828,0.004216861756253464,0.023197574554305926
