timestamp,ax,ay,az,gx,gy,gz
0.0,0.035409366892653435,-0.00245651284188834,1.0082990415346553,-0.0301487849367109,-0.013983098293679672,0.003673896863572959
20.0,-0.0524690263973479,0.007017735036000282,1.0008165134856244,0.12400334643981345,0.009635734432700027,0.006679388189345429
40.0,-0.014978045165881778,0.03160472018676215,1.016857516046715,0.19083212727696008,0.007229604675433907,0.00783161672236844
60.0,0.03871817602240074,-0.020899894601204543,1.0125045982809282,0.17885053783654642,0.005666785069729122,3.0189045058226458e-06
80.0,-0.017003294645326326,-0.009556013760632387,1.0103000703273908,0.0868482260758517,-0.002607462579059473,-0.01304841487554181
100.0,0.00037350258407298697,-0.010166211493233681,0.9985708645129582,-0.03802582133897231,-0.010331712729506786,-0.005837237400104542
120.0,-0.036341262274097126,-0.04044881003083847,1.0011029376166238,-0.1318352923198407,0.007871637292487209,0.008213534714420136
140.0,0.059607527345741394,0.008601013715737498,0.9952852337799045,-0.1870073038965049,0.002239639193702978,0.002443648209408782
160.0,0.08441026458941824,0.01767172880899366,0.9913074783810741,-0.178988472352933,-0.003266666983739649,0.00031222550211690563
180.0,-0.02162378479389,-0.027375361284846286,1.0112371299212983,-0.13019734897789245,-0.001315829899605204,0.0062015367515179075
200.0,0.05997025524379461,-0.024414744376427825,1.0237106893949814,0.017787995101224665,0.007087505928981931,0.009117024402566643
220.0,0.0974464686861467,-0.017447019761902688,1.0234124372546607,0.12992496079095525,-0.007241407529421831,0.0034836461192216425
240.0,-0.005628745467683084,0.009715967739089264,0.9591500591335086,0.21697840662561857,0.0015100923168122147,0.004288411900586276
260.0,0.021944178273612627,-0.01536099203395096,1.0096585003435579,0.18520289130525633,-0.00037336026275512136,0.001157768135241243
280.0,0.1107320018516305,-0.002264027831621969,1.0046958400984178,0.08013203635575397,0.0183630723791265,-0.0004009158967647876
300.0,0.13865116683115863,-0.0039048709603634554,1.0198011989474487,-0.03181607486130905,-0.011631782239819605,0.0026587388669346225
320.0,0.1931185583642929,-0.005832186432976254,1.0509836828120147,-0.17013427092229916,0.012689484065718222,-0.0024482806959472978
340.0,0.2648735386523341,-0.029192296633044762,0.9926684388070862,-0.2052706094670172,-0.015305876287567244,0.0028766503499466213
360.0,0.3127040676107572,0.007295684115006522,1.0063379440167872,-0.16566876292265392,0.0063672803845431685,-0.0035164615729116684
380.0,0.5343771944775768,-0.007814112016386073,0.9923053364681629,-0.10173061019295401,0.004094820429588188,0.007000649227435202
400.0,0.5267340519715861,0.014788464869721102,1.0293011500059452,0.02969737627747199,-0.004092956382840792,-0.004175769641898107
420.0,0.7146087108507456,-0.025194754581914218,0.9874832115623721,0.16377337044147844,-0.0027739155421203495,0.005429264333454427
440.0,0.8225509396158008,-0.004343485175145986,0.989360512363505,0.1754813526442331,0.010596904819319207,0.003187658303036764
460.0,0.9593056354620949,0.0337137141448304,0.9765737417159578,0.16908242022479486,-0.00425738805696859,0.0015620713235363474
480.0,1.0247980335464202,0.027974819423174795,1.016993614526054,0.09719944829001907,-0.009740968241565397,0.025075585873982828
500.0,1.2097613774037663,-0.011985196391502409,1.0210896577641388,-0.06162494807692679,0.007540762581741288,-0.005725180148376009
520.0,1.2499213393111166,0.012110209045033068,1.0239944711211986,-0.14047934639480372,-0.01698025541252735,0.002980124979431527
540.0,1.419467047235934,-0.02045074436584783,1.0084733355007802,-0.21423893676716674,-0.0001407798481819123,-0.019264506795074594
560.0,1.3937895875243211,-0.010061321062896486,0.987370970683844,-0.1729717282043287,-0.00036498390891768215,-0.01070021564655282
580.0,1.5745261755050994,-0.013014712451920197,1.0210848702038,-0.08754856131912951,-0.021673357400263774,-0.0033150880676598026
600.0,1.537341079354391,-0.05488878202058005,0.9768495758260485,0.021673454679351695,0.005136968561449169,0.002144676994517627
620.0,1.5306936620152882,-0.04217538208572177,0.9903905873222258,0.1457673695201056,-0.014169021378208909,0.009701719441969155
640.0,1.3375177893523373,0.017309472253818913,1.0260500926984422,0.1703053010319681,0.002598310339729931,0.027280786167442977
660.0,1.294393098107252,0.010837829887795889,0.9753305961340636,0.13039943002339568,-0.01488501623258707,0.0010032980012291517
680.0,1.1785076356030577,-0.033124416680415436,1.0226052608898053,0.1258697382438832,0.000979793137243548,0.001619572386577957
700.0,1.1201019833396193,-0.010411176036407484,0.9696749771030075,-0.033870669912843945,0.004157528036472176,-0.001453732095347815
720.0,0.9760894466275154,-0.008085067521592895,0.9916183741256345,-0.15306761859886556,-0.004191877150907476,-0.009893731132192204
740.0,0.862118335061183,0.002331902507946581,0.987725730866152,-0.17770241516387583,-0.006483384394250121,0.010194295113988117
760.0,0.7229681104116318,0.003975460218640551,1.0306812148373332,-0.16721599534248818,0.002922381198097701,0.005149441673127549
780.0,0.6247961180026911,0.006566897356164387,0.9808943425564647,-0.054851754298710684,0.0012978443524337996,0.01063765456194539
800.0,0.5712701373380797,0.036081713339184314,0.9886814745225841,0.09595037502888495,0.007081892013460103,0.000613584930545597
820.0,0.36276529993277346,-0.00011147716433359251,1.0154483409060577,0.14430603223136793,-0.00942916925792016,0.006892171291488177
840.0,0.2876974367542662,0.010989556540930564,1.00061871348561,0.19289309329520873,-0.008236795108972584,-0.007841184343940377
860.0,0.22254811886146672,-0.017204940918496118,1.0507801679241942,0.17885976234929807,0.004333428215996947,0.00043039746704899996
880.0,0.17509455992659556,-0.004027845336034824,0.9869944097653055,0.05915699457171812,-0.016961607670950063,-1.5760069019204582e-05
900.0,0.19998230876018142,-0.0013323870513095787,1.0086057602732341,-0.031005973884523256,-0.00941418834365507,0.004317357200367822
920.0,0.06413378701370746,-0.019306019023424124,1.0050184849386143,-0.16389994390311283,-0.004344579192542349,0.017124881852333115
940.0,0.09080421568721582,0.024527863502024582,0.9939559948384384,-0.1688813869932091,-0.0034957014172356383,-0.01097951816815351
960.0,0.0861510337718221,-0.018417455671719735,0.9761323083771729,-0.1410272400909319,-0.024580903460378955,0.014195958766685016
980.0,0.05879292874534496,-0.003937827415926822,0.9773417208811901,-0.10379662521045771,-0.017036037608649995,-0.003876508271320399
1000.0,-0.04122439192045447,0.0222860887715869,1.0121992987747932,0.05568332237352658,-0.02270817613971844,0.008665184595800112
1020.0,-0.03539569079849855,-0.014021322091247712,0.9961592550211439,0.20053467249098927,-0.008835272975135559,-0.0040775149200272965
1040.0,0.03981060294650375,0.004326870660781216,1.005739072405839,0.2282284207206151,-0.020084535038057044,0.013182821482165907
1060.0,0.03267585384244326,-0.00856393993368081,1.0307860367858472,0.13478403326618615,0.0008139173485318931,-0.007198878862355068
1080.0,0.12032048202308532,-0.017235055461374663,0.9970559752834508,0.06601230564282626,-0.0030665657357346215,-0.006182575256091089
1100.0,0.0301949156980669,0.01205083644075356,0.9810569765274895,-0.06697644772479988,-0.004801410867313856,-0.009931607777660638
1120.0,0.05042355513724433,-0.021771622383639052,1.0676051888632163,-0.16050385787966548,0.011126709601495217,-0.005542660960532282
1140.0,-0.0028778490177810896,0.02814173258651867,1.011621095389651,-0.15957780128824106,0.0017535329927977445,0.005943026375206086
1160.0,-0.02507056350882304,-0.006617889417242977,1.0125973463079412,-0.15142133778199865,0.005733287265095862,-0.0025990968875994934
1180.0,0.07034365297877976,0.013929034528160179,0.991278670058208,-0.026607564215935162,-0.0026866776935958905,0.004596822312304286
1200.0,0.00432008732519529,0.011982039802294356,0.9809377287088882,0.06862616992195322,0.0003463133907308668,0.010605016349715581
1220.0,0.024696071586125225,0.021318370331076072,0.9828875574856599,0.18832150452680183,-0.011931081142537976,0.011390824873060888
1240.0,-0.014558265967645761,-0.004760324699888555,0.986479214799713,0.21745430292007253,0.005294699385360623,0.0035095599019646572
1260.0,0.0039403699813668385,0.018946411575046743,1.0076081574085787,0.12958417005366016,0.00041999596786084935,-0.009290184256098911
1280.0,-0.046974913448111145,0.023006873927356196,1.03793481999434,0.01436005749719384,-0.017284314454102532,0.019392767727227006
1300.0,-0.0046284798128465865,0.018021020514965007,0.9606509270146363,-0.0937236124529801,0.010245182394140252,-0.009628529940637558
1320.0,-0.05408740043410353,-0.027750787344104834,1.029273404485961,-0.18613012253051564,0.0065947172268270154,-0.0006648602519112168
1340.0,0.015564909505694084,0.01539230421739344,0.9946047514246699,-0.1680924508659825,0.0011851374569141152,-0.007592058114460755
1360.0,-0.029970079094525034,-0.00465084680695468,1.0153760991561183,-0.13985174590661492,0.0032746810739825213,-0.0009367588478738405
1380.0,0.033316525790739446,0.007160064688388147,1.0183579079971583,-0.055553879863794314,0.0051643462636255045,-0.0036251423330013605
1400.0,0.029230948035516242,-0.0012188823331911857,0.9729583014072288,0.07146117436741317,0.0006551875948971912,-0.005917118076865915
1420.0,-0.0806531892852941,-0.008333358453664444,1.001011556825084,0.14074556662748622,0.00443290620330337,-0.002384323672620269
1440.0,-0.03445372921556585,0.015146733387530293,1.0283209602699728,0.1794863472410353,-0.017181512160562434,-0.018496720121556343
1460.0,-0.02208295068456865,-0.028726396627869626,1.006524353353841,0.1490855396508296,-0.01816787205188601,-0.014551425519512034
1480.0,0.09559604534689914,0.00025293798998041335,1.0297548885002388,0.06310440170664892,0.012149351216029758,0.013127967195706733
1500.0,0.06429520866306805,0.04002500734273024,0.9933115976868847,-0.10646941654597991,-0.011444731866750364,0.010886986371010432
1520.0,-0.04429847142876173,0.029351304887227418,0.9961369769493299,-0.14483756744087697,0.004816687753883869,-0.02384281685844988
1540.0,0.01426025345622513,0.030068437437168357,1.045322496773823,-0.1677238776158852,-0.004842055388024005,-0.006970475691748488
1560.0,0.018064139065688434,-0.01335216755689731,1.0394679752145324,-0.13428544107465812,0.006695620419713203,0.005043099190681014
1580.0,0.03053064302184516,0.026765546910474457,1.0005845826590627,-0.014569514662403419,0.005770446316749992,0.009654928255759188
1600.0,0.03112286704083032,-0.005770457963429279,0.9944257460330373,0.11963029961819696,0.0006866741011718864,0.007500260485913819
1620.0,0.019369336411766143,0.008061442338532648,0.9999039255976021,0.17963388230058602,0.003536142947498222,0.011476215826126335
1640.0,0.08352210811770909,0.008831219094848996,1.0094025037062273,0.21441641055987043,-0.01223235413984129,0.01077434793556669
1660.0,-0.06299059879716043,0.004283252659628874,1.0347078665987444,0.0988885513011476,0.0053402633457255615,0.011882859677300421
1680.0,0.047927985503078745,-0.027010663064732845,0.9852463477863582,0.021465796000445875,-0.004126843934001242,0.00870391789103296
1700.0,-0.02805428788872191,0.02011711806261807,1.0152393525653993,-0.14669586558312253,0.005989430446626277,0.011165517858972083
1720.0,-0.010860824953680822,-0.0017094073648702022,0.9629284112076697,-0.17465875714303133,0.0031888382217375106,-0.0003409642439868088
1740.0,-0.02132427070324669,-0.01851239619723725,0.9753398136316197,-0.19706241785119452,0.00036246968254531115,-0.024965502033150545
1760.0,-0.04502752255360639,0.042201053952597614,1.0225838375257505,-0.11313609432233265,-0.01211605648212036,-0.015139953794102124
1780.0,-0.0071492307441281605,0.00717277801191289,1.0033246224638652,-0.015742524182557394,0.002030542348618041,0.005634737180357742
1800.0,0.04258886181998321,0.00361528922875423,1.0053707468253028,0.17438505862857104,0.013035140479937425,0.010649238184794393
1820.0,0.05446589725226726,-0.01109840090247175,1.0229293578618668,0.1876972193608163,0.007030296042093852,-0.006146466364990123
1840.0,-0.014916387749192317,0.024494096161183348,1.012974298694244,0.19821175809786784,-0.006179941793741254,-0.01186148236282186
1860.0,0.03443288269621676,0.013170243890449285,0.9805298132080114,0.11878295766179392,-0.007104390673483753,0.010181713409595824
1880.0,0.047732619556855344,0.03540554905995325,0.9940989134460284,0.012070150894709728,0.011081033627642805,0.013467099380695846
1900.0,-0.027124372526755838,0.044333035330750045,1.0276815855459938,-0.10297075119012662,0.004944873497111203,-0.001935375295618362
1920.0,-0.030101240557883442,-0.014932695600493229,1.0050122648590076,-0.21357844227400438,-0.009956238414374678,-0.008725394050613264
1940.0,0.0687590257121913,0.014661146209577843,0.9871959397987736,-0.1669349504737498,-0.0021669235935002544,-0.0130154843745293
1960.0,0.062174478778529996,-0.0004717192009344599,0.9975027135604162,-0.09727181773405152,0.017686641055634948,0.004427388358525668
1980.0,0.04041543199542802,-0.005750850405310351,0.9931955580584924,0.022837978911661033,0.005259111666177012,-0.007292716622712875
