timestamp,ax,ay,az,gx,gy,gz
0.0,0.015526610393728643,0.014141830405506624,0.9924059228780141,-0.03150208125609908,-0.006005324617909197,0.012992518821339383
20.0,-0.04166305065245539,0.023316845272077225,0.9977266220628714,0.08918023396347663,-0.0062334709263672005,-0.0025584707727217483
40.0,0.06437883632723897,0.01940430742268575,1.0178336108758568,0.19335536164627776,-0.015339435667977717,0.019146059531419245
60.0,-0.04128535820924873,-0.003973471214533603,0.9950430793411885,0.18640326001888594,1.474793120093008e-06,-0.0008408171353577071
80.0,0.01116627210731912,0.00580370767146529,0.9964697256927418,0.09367800755593608,-0.0034800798976539525,0.0009754865938389126
100.0,0.008262290896601885,-0.0014115599170308171,0.9902137978324084,0.0334529326156828,-0.006792896721170309,0.0025620180990213156
120.0,-0.08087134190103695,0.02461895449460744,1.0370421349323429,-0.11373038438123373,-0.0018067424772161419,0.008540543449845957
140.0,-0.04047566474297325,0.010560767822857598,1.0067777741261907,-0.17549753026756246,0.009871838726232793,-0.008825648812075221
160.0,0.1526201185665927,-0.004525572803550337,1.0100705171117064,-0.18537004686736097,-0.006314102558613791,-0.006703473597900634
180.0,-0.02982745741846219,-0.006981740146607386,0.9841209033825901,-0.11170684681641178,-0.001939223240517528,0.007901805737250075
200.0,-0.0722137891364085,0.013674814834662754,0.9755785248972285,0.03290809833278318,0.007719083798077665,0.020462047493365745
220.0,-0.030363179911533353,-0.02961646289924798,1.0062447534173538,0.15065287273271655,0.018282476168312235,0.009548788539773095
240.0,-0.009279279170198926,0.029815393963972273,0.9852886922727078,0.213986296044362,-0.011690223604557905,0.004337004454412024
260.0,-0.0062999586236634625,-0.007858041929856747,1.001218767262767,0.16548720549603402,0.006396912730093319,-0.014656172825244474
280.0,-0.0059912529214485866,0.012030953449959622,1.0114785022966641,0.08962668833152426,-0.006226628234982843,-0.015472162477734456
300.0,-0.09297762722173139,0.008269997369615686,1.0239419734220865,0.002229906061882815,-0.010347267735307626,-0.012281638944663166
320.0,-0.2935389255602986,0.004959309447374635,1.015871213494634,-0.11268763978006999,0.00755881640429872,0.013758348476826623
340.0,-0.3898000775056086,-0.034996559392858576,1.0393453392732743,-0.16862428073647132,0.008870994585081378,-0.002554820925055902
360.0,-0.3623306338483101,0.03871677953685281,0.9957641185165121,-0.2159370540865996,-0.0009183710044761518,2.923608199555735e-05
380.0,-0.41893251761107797,-0.003309698762076039,1.0295686268252966,-0.09343121342279212,-0.016436630242406897,-0.005477717174049665
400.0,-0.5499845920683164,0.02377361894724082,0.9948205507912313,-0.010295717907172826,-0.00271646334470866,0.023662696955878026
420.0,-0.6791660043154045,0.015460382457335695,0.9962405466491645,0.17859903796294654,-0.014931133687261242,0.00942207793425657
440.0,-0.8458728548632585,-0.034163242161189114,1.0026131482117007,0.21129364443731727,0.002810858149922115,-0.007792891023674772
460.0,-0.872265985751628,-0.013215490523167539,0.9872821603447,0.17195704477659293,0.013990657174658423,-0.0015147297419211931
480.0,-1.0662369262696563,-0.018532955200005946,1.011377473267823,0.06220564334713341,0.0076454363329117704,-0.029062614628419272
500.0,-1.1706026259667268,-0.0168664620695778,0.9657892492078942,0.0010371270553139814,0.0055092860794059275,0.002283882639607345
520.0,-1.3181109249909029,0.00428689784460065,1.0134222654018572,-0.1316022331485185,-0.012333205213179682,0.010645779997265585
540.0,-1.35567563035183,0.0004845818129480487,1.0000092970317076,-0.18804159968736156,0.005449589335251974,-0.002478083128307881
560.0,-1.5251436291422622,-0.04033987719695983,0.9919137137207019,-0.15513301682917555,0.011222027860748605,-0.00815245603418569
580.0,-1.455412377777086,0.0272165230998375,0.9648468083430816,-0.06234521806923635,0.010898036363121547,0.01272378904451186
600.0,-1.4835648259975878,-0.005828861924057179,0.9730710031922735,0.01392469715761123,0.0057972300742486025,0.01363627575509171
620.0,-1.5019279607203975,-0.0027074282874260574,0.992268259389455,0.1278230153818362,-0.005760387536400824,-0.011240299887689612
640.0,-1.3869132845443888,-0.0049940109495853445,0.9938532581839468,0.2373353110306538,-0.0016523804467616673,0.017826932572785687
660.0,-1.3983035808359985,-0.02252576176670351,1.020250447531764,0.14000306872623725,0.009232436664111306,-0.00767390510794018
680.0,-1.1984960097182737,0.04065061558265353,0.9810339372833019,0.07906745570898185,0.0026220874117555437,0.004954623388502912
700.0,-1.1282654859291583,-0.03510119603453839,1.0130168576799006,-0.06994240500566137,-0.017823255653220897,0.0019725586944076136
720.0,-1.0294489132991618,0.03842892014857938,1.024701637823365,-0.13553088740012825,0.011594197811489251,0.0002897594355979311
740.0,-0.9308478326868532,0.03243149990702165,1.0227749313512737,-0.16926574990730126,-0.003718230401817946,0.007982354342771095
760.0,-0.7271585537755076,-0.007400227235644188,0.9943197686566869,-0.1878897730169179,0.013715644183771608,0.012346557268789943
780.0,-0.5423247777414928,-0.00533066861974402,1.0431977625247861,-0.03176999541311733,0.011563113659632003,-0.009443084911630352
800.0,-0.5351841453413713,-0.015516895039789246,0.9935065407863221,0.09164830411598815,-0.004746991329605116,0.009359195730876747
820.0,-0.4243609138740293,-0.02722411237720952,1.0112006631799075,0.1597453598955511,0.0029021162662148828,0.0036534703552913283
840.0,-0.38485786797498683,0.011497069588695568,1.0281970468238788,0.20604729664025298,-0.021108892024882024,0.0024031608878758884
860.0,-0.26761850461351244,0.03750003461769573,0.9830637398471614,0.18346429243392517,0.009954395135952775,0.00071893750904397
880.0,-0.3124199880489678,0.01665386668081835,0.9474846351027765,0.09120206915323259,-0.0008529088518532497,0.0008348528032511353
900.0,-0.09363012409234839,-0.015649164346623688,1.0165025164090529,-0.03581749414297739,-9.983309617878858e-05,-0.0032816298568164636
920.0,-0.12083029691355482,0.019456084169223592,1.020755854282878,-0.1502858415976944,0.011247253006702864,0.022545259996520697
940.0,-0.1904076294029981,0.005163598677058724,0.9861599726894097,-0.18939921160086007,-0.0028665715906147356,-0.008927642487092763
960.0,-0.03093025315126603,-0.019360910876344197,1.0211426803778603,-0.17318533066573413,0.009483359052834556,-0.009506889633840672
980.0,-0.04967967842646388,0.02156984177407042,1.0347749774428838,-0.07158070941065177,0.005396586588484435,-0.02573619887750564
1000.0,0.026707801794349027,-0.03617926831221294,0.985366760580402,0.06569390259652574,0.004184542645031774,-0.013298926495192365
1020.0,-0.0335782509991725,-0.020982549761099752,1.0207037363069542,0.1503454085429697,-0.0017145787784954853,0.004507347326424078
1040.0,0.029482569967478073,0.03780566911697347,0.9752808563220925,0.20810334948331458,0.015757252883663853,-0.010874301852482633
1060.0,0.009941283233371555,0.016979710353731713,1.0102613808024712,0.14056462403944806,-0.009666076698650765,0.0033486589527517746
1080.0,0.0006147867509556848,0.0042971649231932215,1.0347199814208201,0.09275483063511378,0.0059920182891297896,0.00537527033092719
1100.0,0.005117944585969941,0.018150776805013855,1.0093223579023447,-0.09226235269087425,0.004512876872404222,0.0017616338304493587
1120.0,-0.1043901021389451,0.027171159187111257,1.0065791857378872,-0.18479456124624344,0.00569292827575387,-0.022826748011020855
1140.0,0.05359734105442576,-0.00103593867519092,1.0444461018863007,-0.18993808403882706,0.017537587314186934,-0.0025894835985507377
1160.0,-0.045866750385360304,0.01941787952592982,0.9780848505661605,-0.15085946547483925,-0.011019112339965798,0.01930235800699357
1180.0,-0.0031943905027786443,-0.009099779201234889,1.021947163704024,-0.061732275795884486,-0.008116550360591192,0.02279993213182876
1200.0,0.011203439875781507,-0.005976142016977192,0.9998261287035282,0.1267436890107352,0.012246233343945848,-0.022048316754257433
1220.0,-0.034311604892061295,-0.0031607268645887166,0.9562260894556988,0.16483380521878635,0.01279735511496976,0.004158073903252392
1240.0,-0.012111823976409202,-0.02771600330817734,0.9781828982401699,0.16230623607955144,-0.0014873687530153803,-0.000663491531758559
1260.0,-0.05674375283475515,-0.004686199654953714,1.039646834222967,0.15224878103872988,-0.008098118029678112,-0.0006099924062725568
1280.0,-0.012151592538890896,0.03366448028919014,1.005784275693732,0.016839593149232508,-0.008683158316606529,-0.005836304640037486
1300.0,-0.010488720171511895,0.04122279155720497,0.9850915085872435,-0.1171831276298271,0.007115377906862555,-0.0037124989277947684
1320.0,-0.06794575523466335,-0.015437942355893703,1.0162154566457817,-0.17736569842352712,-0.01808430659981955,-0.0017888697498765049
1340.0,-0.02267650804599964,0.0007803234449145133,1.001558282288016,-0.21655087301530987,0.009406569929174541,0.00047563395030032735
1360.0,0.10979407472103762,-0.0008634445971326944,1.002565482696659,-0.15279251801335422,0.007424018904209156,0.010622303354941088
1380.0,-0.0009227075470871479,0.004832737532206003,0.9864512981962777,-0.046455503409152984,0.009518375734665884,-0.0035484414599193776
1400.0,0.021595638569884956,0.019272624319058115,1.0036118833580305,0.09173255380954896,0.0052414824527056885,0.0024617162925622007
1420.0,0.050741404457201225,-0.02035447100815787,0.9701197798441683,0.20572487630430608,0.004876633698558275,0.007651452781471
1440.0,-0.032579986725459954,-0.05540854533702026,0.9973358576277224,0.15685807429019935,-0.008226311114429268,-0.004141444563136077
1460.0,0.06172499031959324,-0.021643731267557365,1.0231346911103014,0.16576266709667695,0.014024690475166862,-0.0094505048487566
1480.0,0.07954815652171218,0.01384695934580437,1.0298105730563543,0.03371385934842995,-0.006344326304894962,0.003927700789527201
1500.0,0.06336599935579353,-0.005368252090040095,0.9736262478406948,-0.08003217855821988,0.002730336920750232,-0.006100395940534888
1520.0,0.07268813525012693,-0.01933352449624995,0.9897796325756671,-0.15710557970645206,0.021357308311576666,-0.012645862069273081
1540.0,-0.02915069067218159,-0.014197402352852929,0.9962378428935108,-0.2125805968293364,-0.016634869501328566,-0.006357546335685172
1560.0,0.0019047731811820414,0.011410672718449708,1.0468834629725532,-0.1379286999457906,0.00758956521450763,-0.007645739056432871
1580.0,0.005356753395898137,-0.03292786794400252,1.000846481786756,-0.010866523993369064,0.01215713557397391,-0.005081545606619822
1600.0,-0.09329337722693483,-0.019097804898110287,1.0009638493908761,0.09885902867736172,0.00896322746289923,-0.0046932089882995515
1620.0,-0.02753861330944969,-0.017122512290291242,0.9673938977433596,0.16405021793859162,-0.008497900557733879,0.012323123087328844
1640.0,0.04033162507892989,-0.006178330919646351,0.9396914292834927,0.20165791091619026,-0.0003866244976552144,0.009666787010783965
1660.0,0.01065864376298917,-0.03901122369682209,0.980068971830594,0.09420072705719777,0.008362959634275706,0.0005732278390239662
1680.0,-0.040478115227276804,-0.012227130733175901,0.9894923959372512,0.015425269089552942,-0.006821731065820841,-0.006717189754824485
1700.0,0.04052013776898927,0.012248645696331812,1.0185498800879176,-0.10356202193805182,-0.0035440564133818442,-0.0024415050204147255
1720.0,0.05727635802174229,-0.0010882534392423744,0.9929058403972925,-0.16299334863361029,0.005214537564469738,0.0014759972575267358
1740.0,0.02084912949010854,-0.013778877028328035,1.0196794161030345,-0.2131803686883273,-0.0010374715787830227,-0.01253438099534289
1760.0,-0.050986067433942725,-0.022967013617906453,1.0016857541121542,-0.10848095985746217,-0.007459081859780562,-0.015956528326847894
1780.0,0.03486675050621543,-0.0010566238184364504,1.016411816280795,0.004069067655835548,0.022223138652252845,0.02795794035855633
1800.0,0.018639656517047173,-0.009142347569430215,1.0275852415443458,0.07636950456155187,-0.0019736909688850657,-0.0024466044784652733
1820.0,0.03219493177546218,0.0165506821173881,0.9746980745301433,0.19796595913625442,0.02751599656527608,-0.014557599164833734
1840.0,0.03237289717404958,-0.022236170589081904,0.9733864173876712,0.1937483855969089,-0.0024608776431160172,0.012250714896453175
1860.0,0.08586347574630948,-0.0067104441822235265,0.9792438040379231,0.13266133497814164,-0.013205254223640895,0.001402077341654966
1880.0,-0.015790357890024344,0.014921030829993858,0.9569042424607019,0.01475691729024333,-0.01784693222705357,-0.004855475389028853
1900.0,0.1236303126288308,0.04265490648021503,1.0046158605007809,-0.15906096126013272,0.022578678127730623,-0.011656578265903906
1920.0,0.08023308363480539,-0.00015830081419273678,0.984477077851072,-0.1483139227686712,0.014764384594186233,-0.022699565002770133
1940.0,-0.011126768211121536,-0.036707430443027586,1.038849749291646,-0.19235085300289398,-0.006550418344577408,-0.0015208347012620447
1960.0,-0.019655308980967033,-0.04281469651715725,0.9858318107504591,-0.09541391329476193,0.009174607281737732,-0.008160275367202251
1980.0,-0.07730612309768786,-0.00752121834381981,0.9781515653896967,0.0028193716973948174,-0.006433688197470381,0.013876543367457757
