timestamp,ax,ay,az,gx,gy,gz
0.0,0.05602586800324721,0.003664682228649015,0.9926678399897197,-0.04563362495728879,-0.005903687139896391,0.002268063545345642
20.0,-0.05926809442790048,-0.0004024021371298002,0.9991801086660268,0.1158890892438491,-0.0041302286564818755,0.0076287043309572035
40.0,-0.04793704400373148,-0.0255557178655296,0.9946878223142069,0.20143130871140755,-0.0029420876422894637,0.00941891800163176
60.0,-0.04250333069392256,0.01219982918294978,0.9872413481571981,0.1631539404567752,-0.013421173008798713,-0.0025185216965380288
80.0,0.01267919814636815,0.008147563300309435,0.9695817830563764,0.11720257155985898,-0.003555670408116023,0.004409972455382754
100.0,-0.04132759068305922,0.0017643803258242704,1.0187255682230947,-0.014001161289812051,0.015285003431935236,0.0009265356785419407
120.0,-0.13910903135035488,-0.016619209657887227,1.0013792219774935,-0.12830934810621727,-0.00997339601418061,0.001599606903011791
140.0,0.0909294246585675,-0.0037700712729567903,0.981941345225158,-0.17474419297048374,0.013012991848313676,-0.008691922239690715
160.0,-0.03361621270354041,-0.03840112330729508,1.009090445777986,-0.180944691395976,0.02161033651871505,-0.020814017982646413
180.0,-0.031464300133386275,0.010105480071461061,0.9577192730467546,-0.12255579825428264,0.0015217368925490493,-0.0013219067017248378
200.0,0.003504228730301505,-0.0091489925521214,1.0229192293006817,0.019595175442490637,-0.03034413111127276,0.012425531019703468
220.0,0.08264557914437748,-0.0004130221417955838,1.0053830358820515,0.1172060062689248,0.0005010257722893852,0.02141775503175429
240.0,-0.013923516381633826,-0.0020655676074834255,1.042606939096785,0.22467295945219626,0.008717136716198157,-0.011045319730324566
260.0,0.05084920752731105,-0.01973808813970203,1.0158010823943917,0.1815479440510053,-0.008844977787655021,-0.0064756228724914934
280.0,0.21376840682684944,-0.028669611575505176,1.0297105029180291,0.12996876407576663,-0.016551838983989868,-0.01600269259544442
300.0,0.15053089598581584,0.0016743171280632803,0.9889026674162016,-0.03335848031659671,-0.01262080540768223,-0.003859984409411469
320.0,0.2761915897460136,0.0072087140452169116,1.0141216985873007,-0.16000430217701864,0.0016751673076772003,-0.008291476980416148
340.0,0.2817834602891162,0.032540775963314984,0.9805344719453571,-0.20569182560370866,-0.007103145940581333,-0.023497862101997613
360.0,0.4469161583071834,-0.01345897768524163,1.0146397240781173,-0.2121120043253481,0.01170393483135726,-0.004971110238386574
380.0,0.4786458814320528,-0.009805198910859543,1.0286687839682331,-0.12215656404138847,0.007821692544647206,-0.00795113096026694
400.0,0.6000910228748829,-0.014051802912019197,1.031148634488503,-0.023439541735141227,-0.008218049232678897,-0.010157397239528467
420.0,0.7507110143865101,-0.02943672969505011,1.0285709264950034,0.12909375987690597,-0.014074850462110787,0.012990779507613315
440.0,0.7495050049426188,-0.005896923367231319,0.993198174171474,0.19400631132837481,0.02153621324113138,0.009439059765905861
460.0,0.950376159102847,0.030854366291938287,1.0066322502926766,0.1978845412254012,0.015145103647748853,-0.014233125744168476
480.0,1.0153342470158593,0.0247133106539013,0.9986005937802533,0.10859690435358883,0.0020510699015651645,-0.023654853670175124
500.0,1.1930743146796505,-0.006860124807656063,0.9935203725925733,-0.04060201053024616,0.013251541055682832,0.014061668551596511
520.0,1.3221168362812905,-0.01533797887593321,1.0164659602282407,-0.13723189510418327,0.007829025929545052,-0.0023382478022056126
540.0,1.4173940908493547,0.02144756462677194,0.9878287862317173,-0.20007134467469706,0.0053007801014968445,-0.0062118882163757026
560.0,1.4692435551621512,-0.011214183226321742,0.995323840496997,-0.18512767983022682,0.016674947388910098,0.0001243819144205038
580.0,1.411588791189053,0.002238114323382619,1.0226098196217612,-0.11166221873736254,0.0056711744477258505,-0.007332215422983497
600.0,1.4486197569486596,-0.025239857784323475,0.9648965889451354,0.029465285391582913,-0.016940090861791136,-0.0023636006281774116
620.0,1.3563060138856649,-0.005427389968286594,0.9992800523458674,0.12652537082750467,-0.005598274661235656,-0.011270512007843682
640.0,1.4772086139333076,-0.005065848265378421,1.0280260730299629,0.21288463967611052,0.01729265540140872,-0.00021212806354253377
660.0,1.3410544542040674,-0.01927676017353322,0.9771852124512354,0.17446662216452072,-0.006131731882874648,0.015110329446357783
680.0,1.2171537242237194,0.0008600761378826376,1.0069403638870111,0.07801487848542847,-0.005563458217900291,-0.0085031070685258
700.0,1.1499920368621792,0.009514517891673704,0.993714773152594,-0.05380400325339424,0.02060922177327055,-0.004181043956058342
720.0,0.9754632673930438,0.0003223009797951999,0.9897641197754362,-0.13791961403980332,-0.010770044238152468,-0.008814479204843288
740.0,0.8857345131233316,-0.011850317464494428,0.9925084331066708,-0.17402804053635415,0.010952788528955811,0.021674017706275178
760.0,0.7011951636049647,0.008802795750734007,0.9555278404800093,-0.1738234599664392,0.0029271098837776953,-0.007291554128659186
780.0,0.572200006022155,0.02561201042239442,0.9962211343007641,-0.10026946800355581,-0.0017991926396926658,0.005030449409001872
800.0,0.5191264488087507,0.011153116035546154,1.0138171954694881,0.05671620390936135,0.010117941853714334,0.01395170965599998
820.0,0.35875577303256934,0.027683573306795745,0.9850981815675227,0.1965460709159128,0.0027164974802945416,-0.006559421074878556
840.0,0.3120166207831597,0.008907828279090355,1.012376364553881,0.15874647211990486,-0.01946184449906088,0.0016845443187387648
860.0,0.19639548041422114,0.029069428314128953,0.9913160014534141,0.1886463187333029,0.00967487581835726,0.0019600905399468444
880.0,0.16588100406998468,0.04642286199960781,0.9813536106358153,0.06543754237353945,-0.003968576396567599,-0.014303212221581154
900.0,0.22644418820512574,-0.05088831911314526,0.9716642494398466,-0.06875105651102502,-0.0006389086657830293,-0.00546517444242312
920.0,0.19160464228312182,0.024973889261982147,1.0267534532916696,-0.17823062266473064,0.006028220136793631,-0.0001904320061904335
940.0,0.11208943780763292,0.0037815446476981924,0.9940862831938085,-0.17695294890351257,0.005292346196700521,-0.006978967434847626
960.0,0.05965262436749349,0.020468928026457674,1.0239181624594502,-0.17959043703848138,-0.0010975556496525495,-0.009070991962752155
980.0,-0.007964866390248952,-0.017172172212416202,1.0234473492726632,-0.0277782988805712,-0.009239842485370476,0.007191855664400273
1000.0,0.03753601885575397,0.003318929059409236,1.0121864989772622,0.07593899508861916,0.014031993189557158,-0.0059185948995407805
1020.0,-0.014585576113109826,-0.012063580139460121,1.005058210795,0.18944536963802966,-0.005372527571648806,0.00039806771781905907
1040.0,0.0028984423156876854,0.0005121395647473838,1.013777909801076,0.2152856422159913,0.006636829629630539,-0.013439665804272612
1060.0,-0.01147178961397005,-0.025790422974138996,1.0142658136427887,0.17668497027644017,0.007493968406021552,-0.01016779891145566
1080.0,-0.07595833574292671,-0.004167742798488674,1.0352764417072324,0.02686796582386603,-0.006915080572532687,-0.010685842069963584
1100.0,0.11460792894053386,0.010750849712161352,0.9957224800872038,-0.08454286987423136,-0.018194118324547513,0.01517251972939106
1120.0,-0.028495143459387043,0.01938160359530589,1.0178833799290485,-0.16883143709946824,-0.0067310389190098786,0.012331932844741522
1140.0,0.08160396585715976,-0.024498697717954973,0.997827559323551,-0.21151135234910093,-0.01817194049062731,0.007692779881639771
1160.0,-0.10284337919571586,-0.028650042447353256,0.9761032703679825,-0.16135008730212602,0.012655200053986085,0.005802511614144933
1180.0,0.10305474600184186,0.011676839602818104,1.0027836895101587,-0.02591680655725954,0.007673637018955309,-0.005386150601315943
1200.0,0.029815008215348403,0.016628776672689746,1.0188506633183354,0.05541077323263903,-0.00168744554342317,0.0020949817356035027
1220.0,0.0003908284709824826,0.005190306971677129,1.001910661522281,0.1663885602351541,-0.00974982884101259,0.020780486772754056
1240.0,-0.034452565004294736,0.01064944295385559,1.0025455015563598,0.204004639158761,0.010027532145193844,-0.00894052937341313
1260.0,-0.047451808574930164,0.022203101770523467,0.9939895641543326,0.15430630983500146,0.022297239839571353,0.014671621632116097
1280.0,0.05472471233193068,0.030241948512299742,0.9858434494351491,0.04808099401056215,-0.00817941291669742,0.012730638522360425
1300.0,-0.044429252595985805,0.021263125956019004,1.0097911643697084,-0.07757716386792553,-0.006156696498839787,-0.029501405136849197
1320.0,-0.0074520359007500935,-0.00473593025969292,1.0071331541673278,-0.17993372466939223,0.028512910484715152,-0.01036113926115202
1340.0,0.014748639553350816,-0.01660123583087399,0.9776274982859844,-0.19438397798263776,0.0007956185146980836,0.007925200510808068
1360.0,0.08821791761039355,-0.019224154031953326,1.0661551160707274,-0.13948688137345946,0.006015584741554693,0.00620525100876667
1380.0,0.04950810637023941,0.02583428998218427,0.9886809587087975,-0.05591390647321691,0.014010937908753652,0.00031691450415815534
1400.0,-0.010010058603228806,0.0058475030715308554,0.987009842889667,0.09252854909264685,-0.006650515831460516,0.003323278046680434
1420.0,-0.06863107310739111,-0.028922857349178377,0.9980002796188231,0.1745759236610926,-0.0018809890494699386,-0.014573435411971685
1440.0,0.07752537466481536,0.0344759820500294,0.9808288633761564,0.21352741796821612,0.0018710781296451637,-0.008380223593247263
1460.0,-0.06174149838636459,-0.0036268107407402923,1.0033049091862318,0.20107998975913946,-0.0027646696600950632,-0.00824891256686903
1480.0,-0.10774296336634324,-0.0006497499695065817,1.0065812644376302,-0.012700354808418121,-0.0012885423798340804,-0.007875441916595612
1500.0,0.01699388897912612,-0.00024835541451966,0.9903024891479288,-0.12851287939227007,0.016668675728257153,-0.002978573798886877
1520.0,-0.07864061537397286,-0.01567425634067387,0.9809123650338913,-0.1876276389214245,-0.0016078454827021297,-0.01712942650144922
1540.0,0.006045058742721934,0.03335410342344846,0.9995870096503263,-0.22509487101309472,-0.0042893424525161615,0.014143661906184475
1560.0,-0.0062500495128012664,-0.007102160561243617,0.9795358122065259,-0.12754110679767505,0.007198957921218999,-0.010372012329439332
1580.0,0.0533312496170794,0.025166839174240466,0.981778119196638,-0.05506999888022089,-0.015273569712985777,0.0050621318817137065
1600.0,0.054194017250053315,-0.010460958893178786,0.9935364710014862,0.10954670443039786,-0.017021344525666175,-0.015849429872119156
1620.0,-0.047024135238088016,0.010009397472096379,1.0003609310360317,0.14817614452042568,-0.006281013753494776,-0.014026679677029983
1640.0,0.07724054068218933,0.031073481984118138,1.0120122853425106,0.1950697187181242,-0.020187241312089148,-0.007071335577115146
1660.0,-0.006336483415119493,0.008292677916825317,1.0197876218787933,0.1408698377578875,0.006352180811504336,0.0013971382436697777
1680.0,0.03910588315957962,0.012581752298537602,1.0094411555509204,0.025015915077893195,0.001707344324661639,-0.0006928431340880904
1700.0,-0.023727482358291002,-0.010751819180916866,1.0019827774563907,-0.10794912199530077,-0.010368880586481475,-0.000795263444171891
1720.0,-0.024437627825306615,0.010523435851721148,0.9900989959907062,-0.14413788259120563,0.005176857822890112,0.009401415956550441
1740.0,0.0031872911461820895,-0.014781131300934176,1.0102838272970345,-0.17535040909353425,0.018994449410517006,-0.012548564388717756
1760.0,-0.014239627251678778,0.0313626131812626,1.0293835794649213,-0.14138288043391728,0.017740760943034416,0.018481533906964474
1780.0,0.05858187648270306,-0.00254630120412812,0.9573499305938231,-0.01186990944995502,-0.015429358350403304,-0.015620659237377741
1800.0,-0.04596447143254175,0.004030456518027147,1.0301645762751206,0.10956363811247208,0.01129892342946002,0.0007963729150207634
1820.0,0.0756376713305946,-0.007722134744441032,0.9527556495164761,0.17441867152845011,0.011947436564851508,-0.013972721452506196
1840.0,-0.05260142943767981,0.020346005904550855,0.987041298314165,0.1954423305308657,0.010948528209572402,-0.00547272077335792
1860.0,-0.01998706594452445,0.012550888295189161,0.9793426712805012,0.10970023074025288,0.0013476990600021375,0.011032231332269994
1880.0,0.09466950668651879,-0.012074381274148359,0.9926271224380971,-0.005801673998761908,0.0012358287023300349,0.004296352739948125
1900.0,0.015592971469365722,-0.004423446813329283,0.9890693300078693,-0.11242076426715245,-0.0052879510981486,0.005807132684972231
1920.0,-0.08067016624942674,0.017906135735059555,1.0224260900863436,-0.1870892633856613,-0.004997100866469573,0.008952221096098742
1940.0,0.006685262997963657,-0.010781772422853346,0.9724692964092047,-0.184547380868944,-0.0010216336131676413,0.006399472939886292
1960.0,-0.03888261133353971,-0.014962746761630683,1.00456076278958,-0.10281489378970465,-0.02033324976172243,0.017092625317738728
1980.0,-0.06675764101567597,0.03595512831419108,1.0038874195246126,0.04136577036451415,0.0023624372603541026,-0.008784740479873366
