timestamp,ax,ay,az,gx,gy,gz
0.0,0.007424206474322277,0.008147400312441653,0.9831334465914742,0.018271010256222655,0.015482092995676077,0.0032303039665169918
20.0,0.05309121765051577,-0.019235383994577825,1.0016224165672885,0.14437914846902414,0.0049346409608407756,-0.0065009438423210796
40.0,-0.02003579586573913,-0.00497298581212716,0.9786869654858982,0.19528518915048282,0.011326307841807267,0.014386224237222817
60.0,0.0008076024853214965,0.03185607261116427,0.9927149479726826,0.17509633026471857,-0.004630842027567211,-0.022779273441340092
80.0,0.09125015961614098,0.010689680738121833,1.0381993601029778,0.12763015114527876,-0.004224227802043037,0.005700651489525779
100.0,-0.024320091648089362,-0.012506253962333146,0.9857832332941193,-0.010779688015378968,-0.013684140866981788,-0.00215933450095905
120.0,-0.012869399311129057,0.049903258952523157,1.0399970011139408,-0.12082074755111007,0.0012009857324916128,0.005673068395485532
140.0,0.08436020641230738,0.002392276362686717,0.9968824413421303,-0.16385627264473968,0.0020642389425063836,0.0036951712287490975
160.0,0.07886015470860773,-0.015253004305291355,1.015754606256241,-0.21201253733953193,-0.010406287128872373,0.012914127200740474
180.0,-0.043926414964691074,0.011661424236363752,1.014787701815707,-0.11400847905081091,0.002803656680733505,0.005475453293347893
200.0,-0.01745447194893017,-0.00844519246967408,1.0417820993669884,-0.00536719819878329,-0.006993242893663948,-0.014145767588390909
220.0,-0.03875639014233,0.01162497246105997,1.0153956009398144,0.12051408385006014,0.0002859515455778929,0.00986999370489808
240.0,-0.04793322460284154,0.013547750891515843,0.9818660352275063,0.19513278254866961,-0.009701255004505544,0.01263518546365134
260.0,-0.09883664633331773,0.027319355502933376,1.015318809038223,0.15437686695390646,-0.012129883949303241,0.007833590309459945
280.0,-0.1673718378649806,0.01837473919683478,0.9844536421472609,0.09205125432466875,-0.0008418491582074236,-0.009402079835294478
300.0,-0.1597496588687368,-0.026327655895547312,1.0198602479340688,-0.008921352887333757,-0.00864789920249474,-0.00316195968928889
320.0,-0.2272483926545419,0.010734328099336369,0.9784147692768196,-0.16211039921870446,0.008714336766177036,-0.022212246569246967
340.0,-0.3107876475480749,0.010095350476818957,1.028023752031875,-0.165273795115584,0.002798402378370108,0.008869895664389045
360.0,-0.4558269381162081,0.022323330161501866,1.004003287779611,-0.19495177785726606,0.006252796125374801,-0.004679843735484253
380.0,-0.4688135900218574,-0.03312673803748453,0.9972756888183041,-0.11485794655235468,0.0057131472373340335,0.002947411536813388
400.0,-0.6349948319666092,-0.0013514633109423955,1.018223181471872,0.009577081433017411,-0.013879657206394766,-0.0024544328661168587
420.0,-0.7370918566331787,0.029945206354444327,0.9980228132835836,0.1505108741309959,-0.011581485212342155,0.009479023098960676
440.0,-0.7435940963483073,-0.020909138740322818,1.0194087918428658,0.18665329112406856,0.005830839013202387,-0.0007496855420628723
460.0,-0.8503783147650251,0.010684133992665658,0.994584866911919,0.16110733447408768,0.007074316310583361,0.003313036958902635
480.0,-1.1282034427152012,0.03550262603825825,1.041065553306287,0.13981938610822903,0.00514799819634513,-0.003350749758855132
500.0,-1.2449638764835813,0.008247446198783533,1.008072403800057,-0.017611959168417943,0.00939575247218508,0.015049139218000667
520.0,-1.3579720075665507,0.040788136191520934,1.0103066154991216,-0.18581327114330778,0.006610149409574205,0.01523999838595168
540.0,-1.3737950978313787,-0.011717823033421617,1.0415821564929775,-0.1693538988930357,0.00804945912602092,0.006886185042339738
560.0,-1.440584696732899,0.024044877399672617,1.0135747484569637,-0.18238677961869101,-0.02039760088999906,-0.0036167153828604703
580.0,-1.3938881523877213,0.00994172384251344,0.977470201114923,-0.12539051912946567,0.0001732761771974667,0.00888313054482637
600.0,-1.3766559726117853,0.0077526312070529515,0.9932210214412827,0.05473370063741357,0.01134637173653251,0.0023038759777852446
620.0,-1.582273547507588,-0.021025242271121833,0.9822303250532989,0.17945667303296967,-0.018587597078456503,0.007305627106035932
640.0,-1.4679265553430394,-0.008173555602131132,1.0205171132146755,0.2060291872648247,-0.000980786132085108,0.014075389334866236
660.0,-1.3765802744151732,0.02418741456879841,0.9931336027931144,0.18251387260108842,-0.002750669058042049,0.0358335727435973
680.0,-1.265369745365601,-0.04266885403540994,0.9745301142147865,0.08282533043115266,-0.02170549632680614,0.01211330172863943
700.0,-1.0795169782828928,0.013303670517602671,1.0223955498194097,-0.07279164202869717,-0.003359477845941425,-0.0012282190564688127
720.0,-0.960235845707999,0.04868868329053222,1.0090992625880155,-0.16096579046249057,-0.004624017062547678,0.006174371283409494
740.0,-0.7299498618238668,0.014022984714330557,0.9986236738237869,-0.22608260556922713,0.00275205803548748,0.018068062943440866
760.0,-0.722212710898114,-0.010424286835563665,1.02794898525325,-0.17252264572082635,-0.006403231310406202,-0.010811598991492997
780.0,-0.6462051465687435,0.017475165256954413,0.9884402267906067,-0.03278559777369459,0.007781387449743948,-0.012958912443895774
800.0,-0.3994672450288505,0.02040306446921111,0.9936237959783469,0.02517305851181127,0.0036119193446569314,-0.00023055341317553774
820.0,-0.3878407034036396,-0.03547061460963013,0.9986953415219899,0.140784127746986,-0.01592345816971354,0.007010669313320845
840.0,-0.3362885924490519,0.0078484400343409,0.9892627579787527,0.21231098683763852,0.020102925710976844,0.0025796587996727606
860.0,-0.29934323999970675,0.0012440096570253095,1.0147772999344156,0.1731558434617331,0.014426425645642494,0.006764173071437993
880.0,-0.23106666646733354,-0.02501138009277669,0.9834997141147215,0.07396230701810193,0.015446604412469265,0.011682553948098485
900.0,-0.1038231393831355,-0.00740635298915121,0.9748523919417916,-0.06994342318073452,0.001101125255404673,-0.009835461813413113
920.0,-0.1594167833139914,-0.007652332205168525,0.9738530045169154,-0.18726376487311333,0.00511861228238298,0.012935815145038995
940.0,-0.0686565168685026,-0.010061883255851103,1.032564059687758,-0.19830199098964915,0.02592830788686507,-0.018848984610006943
960.0,-0.04979703420328147,-0.0059533449816584995,1.0093095942810344,-0.1812490935108731,0.0019475522946789002,-0.02007645883328402
980.0,0.073388028045489,0.024613600151119255,1.0038413327161906,-0.04128354319355469,0.006090528935854251,0.020226855589143413
1000.0,-0.032874193034500385,0.013022252924338801,1.0208443000031397,-0.004867529785705045,-0.01225193371731611,0.0035092006211456016
1020.0,-0.004209796254264313,0.02051212159670633,0.9976285854862544,0.15788467749862023,0.002243942382594181,-0.00735779884641242
1040.0,0.00139975956331264,0.018861408915275456,1.015680749958473,0.20278584777754358,-0.015535243101007973,-0.0027350993447757418
1060.0,0.02644280084262425,0.018494179206193936,1.026160003455402,0.1465357691073404,0.004084834963059174,0.017710451146158428
1080.0,-0.1012035711285388,0.015585086732312497,0.9956290070355671,0.037856667486077175,0.0034703130473275196,-0.028166992560379703
1100.0,-0.006569659441507372,-0.0009243693161972091,1.0000607954005276,-0.09406308293339061,0.008970928135396846,0.008992885881753714
1120.0,-0.026803833711074126,0.028240286925279353,1.0009501018069775,-0.16522062478094054,0.010581840037420192,0.015252949056832466
1140.0,-0.021239351297190286,-0.04360195309825152,1.0147378106684624,-0.2053505075951322,-0.00014557593912603651,0.00927326218157526
1160.0,0.060295791681203484,-0.00983740519143923,1.0048494983359189,-0.19086208251376052,0.00044202004675724695,0.0013485923980222285
1180.0,0.060401981771688235,0.05163450332091229,1.012039171599166,-0.034495736200091956,-0.011016032211087464,1.4830435903758354e-05
1200.0,-0.08177574734749224,0.016826321915626778,0.9825904860850133,0.05328982212649238,-0.0021157126725611566,-0.006007537216233323
1220.0,-0.03588285226731163,0.0007197429376481428,1.0006518895308891,0.15591958878133017,-0.006156256759836328,0.0036610842157694533
1240.0,-0.014923290994708304,0.004064865230623821,0.9976776393208235,0.177698971276515,0.015126953099265641,-0.012656842159092857
1260.0,-0.04894370144742904,-0.012293977340822672,0.956685050960811,0.1480020308806073,0.01568875121225483,0.0005968457284932265
1280.0,0.00454110974006029,-0.03497993752393951,0.9705486256682812,0.04729101047112622,-0.013244035293221379,-0.008964765604805351
1300.0,-0.045721166383453,-0.03463284666939325,0.9659987991074473,-0.07571520733842566,-0.010116425642320567,0.003392685065226302
1320.0,-0.002602281472553206,-0.008407124559296436,1.0072863719272644,-0.2288952960116166,-0.014108146439464458,-0.0010249962394663517
1340.0,0.007436586462812121,0.040055603074155115,1.0268968697718242,-0.2086004416996188,-0.0038553867926631774,-0.0014101747962062762
1360.0,0.06895286333177239,0.0033129146313767973,0.9965172864258893,-0.18128162424214297,0.006601262643408989,-0.014476939840267208
1380.0,0.0296152832136961,-0.020041096918026743,0.987320794259829,-0.039678972379052005,0.0006902707649601846,0.004615130722556879
1400.0,-0.004523713719752324,-0.0037929846858660095,0.9838152210236369,0.10421289374555921,0.01588807307189744,-0.001404465719420851
1420.0,0.025881197957747005,0.005727644652345232,0.9914166207058223,0.1938083172388138,-0.016127863117566504,0.008700613729670008
1440.0,-0.008542052731499576,-0.023671049049356286,0.9765120904639736,0.2022660487014567,0.011589053043007527,0.007193533952694767
1460.0,0.04344694274303616,-0.025255325988130028,1.0358727955579237,0.11730836072596296,-0.018552267759962417,0.01395553537920537
1480.0,0.029401246510341674,-7.350470634936467e-05,1.009822020590798,0.04801843940471419,0.015367306843016773,0.015906657624850773
1500.0,0.023802751020224274,0.010715173439940454,1.0049906271809452,-0.10555105442948474,-0.015312098397932768,-0.005001341629726942
1520.0,0.04751140093988981,-0.05175903748292153,0.9989683513894924,-0.1744310996979319,0.0002615348121687036,0.0035186714068351187
1540.0,0.02253538509962803,-0.001519693332342411,0.979351173112276,-0.23427648053622827,-0.00037425253810512106,-0.008947560086993201
1560.0,-0.07402918801140194,-0.027118135086697356,1.0142681787341377,-0.1403306595625635,0.002516732397156256,0.008176488207349774
1580.0,0.02641839785507663,0.01963677416284129,1.0228584218146564,-0.05661552357008276,-0.0023215481237755056,-0.003436046708769234
1600.0,0.0860741799114914,0.0044485719305447135,1.0061750884291463,0.050593167272364806,-0.009764862279603673,0.006148109394249779
1620.0,0.07002892675554656,-0.011564911941569318,0.9948994632108735,0.16906771618945246,0.00944745824484054,-0.004078986443222939
1640.0,0.06827332980912725,0.00016867149071492885,1.0056202306836681,0.20746709413513775,-0.01782498773568674,-0.01895756115650496
1660.0,0.0023923860817649427,0.00210699365992657,1.0286727929072375,0.16425407995336005,9.529351495156028e-06,0.0054978852724481865
1680.0,0.0013116325090390092,0.00010213835933462171,0.9727336372506918,-0.0025341603674933315,-0.004071198048725523,0.01145999164771715
1700.0,0.08197115365953449,-0.016847439256376513,0.9904318852757305,-0.09315464593260962,0.001539413055464961,-0.006618896452411553
1720.0,7.231260988846773e-05,-0.007675675847445677,0.9952878236183761,-0.17946266194363628,0.002486003168221074,-0.012119805606084584
1740.0,0.02598462988554672,-0.0005666784510403976,0.9892874878220608,-0.22669494899570272,-0.023568550299701268,0.003416005967443321
1760.0,-0.05334179099539851,-0.00019026478459671588,0.9983325900277981,-0.12283146591221676,0.008178248516813135,0.01665379127135399
1780.0,-0.036911809899706736,-0.02929418166828798,1.0232026677939319,-0.0281858662439737,0.01427234292075248,-0.012206910528178778
1800.0,0.028169501659259563,0.0029174090013313753,0.9922672356978595,0.11787523123865651,0.00481375764033258,0.014083741757239206
1820.0,0.015347758111636788,0.0006262476422589402,0.9897075376918898,0.14074341758846456,0.020994978933885015,-0.008843737966868574
1840.0,-0.0026068333620168937,0.003588090720158002,0.9780877152044034,0.1860867440917827,0.010593971630630639,-0.006665040979887956
1860.0,-0.06434826089754418,-0.02564051248625161,0.9987302755653243,0.09563820864693341,-0.005840858388118296,0.005766721324382349
1880.0,-0.10765382597478307,0.005274708119615632,1.0120318274660884,-0.004150811192438286,-0.008178015990222502,0.012129353979618321
1900.0,-0.022090071800165974,-0.015094598999437839,0.9825969249557236,-0.11473507368539937,-0.011345812038909194,0.0024835163729528377
1920.0,0.02114954432231027,-0.002039546862792435,1.0238776018637046,-0.19564139950895332,-0.0009885581312132432,-0.0019169713647992455
1940.0,-0.02684630857171288,0.008509507681806002,0.988525055521308,-0.22535468725503094,-0.0025595355536229976,0.021721863513300414
1960.0,-0.0726071606222785,0.0029708536057424357,1.0196852900197009,-0.13999903019861182,-0.015089855393955208,-3.2596658489187064e-05
1980.0,-0.02786125662345866,-0.010254895064173944,1.009581046043506,0.011488432226981168,-0.00619913168121602,-0.004350636230234549
