timestamp,ax,ay,az,gx,gy,gz
0.0,-0.09069777885116262,0.0011700120059824092,1.0060046008053152,-0.016857506584688035,-0.007936059886183584,0.005568367924598091
20.0,0.03678213817974746,-0.0013867787749312363,1.0141289158806956,0.10106023858473287,0.002120782970137481,0.009787940009460193
40.0,-0.07638519070268542,0.007417073008469709,1.031354356970186,0.21877807721930304,-0.0034938080598175777,-0.017448928897995132
60.0,0.044998158504466146,0.020861405391938908,0.9953595323684716,0.20644374951571534,-0.014056661260989286,0.002246355900442289
80.0,-0.08525470682578738,0.023162500243783267,0.9896155065878898,0.10695976154772523,-0.013487976883927283,-0.0026549117977986213
100.0,0.03716590539774334,0.0046717127848001205,0.997705549955637,-0.0371716535141825,-0.011071351907759553,0.005920940671469758
120.0,-0.022635288063845706,-0.01190556121591001,1.0126215832591483,-0.11211211991856847,-0.01983854497972704,0.0015241221161953944
140.0,-0.02482685196806323,0.01052678472435284,0.9933465559423231,-0.19973903443147165,-0.0029516095449164804,0.022939012810444154
160.0,-0.012534420205162468,0.05304104585632317,0.9997187120870916,-0.18105415047139067,-0.007225167033018341,0.010459365497576437
180.0,0.01771788729166481,-0.01696856039740901,0.9919393824387199,-0.13471392739027185,-0.01020703804425326,0.01332601689470748
200.0,-0.08616754034204922,0.0031390301586410162,1.0676680853512086,0.0035765840920123325,0.0004803971613898598,-0.0016515668839026446
220.0,-0.0320698315183431,0.03628315049058273,1.018339499995456,0.11870214225672715,0.006058245534854502,0.0062740828786281445
240.0,-0.12031635852715483,-0.010358811073988568,1.0213494253599549,0.18618055549855664,-0.002653540349931715,-0.015166865456028718
260.0,-0.12215894566590788,-0.010510395138876283,0.979544064880807,0.16412067085726054,-0.0062424192097804004,0.006001577337641772
280.0,-0.10646534566030005,0.01708964046933664,1.0040332526785347,0.1211411928695646,0.004362772069283773,0.0005500749563097375
300.0,-0.20296065395655424,-0.013029596997976052,0.9621658965421176,-0.009095477507642138,0.008210312807221573,0.0007561857971466774
320.0,-0.26601308393009193,0.03577858510144631,0.9680703468903461,-0.14827799248344506,-0.007170180498153826,0.005984310933560788
340.0,-0.236030152021485,0.010793163973477767,0.9827256778464714,-0.22445079875252827,-0.0074886990234030336,0.005072456941586723
360.0,-0.33427717367269977,0.002454512047593815,1.014523947940801,-0.15782616235787975,-0.0005207417352920241,0.007542512557624525
380.0,-0.4207988347174826,-0.016840505623127233,1.0185505962741448,-0.12284511109144196,0.004307683650186928,0.0026910253495374295
400.0,-0.4914946039154168,-0.013314193218051667,1.006604745675874,0.030466967940059857,0.00964128062245209,-0.007550854925258826
420.0,-0.644959358993092,-0.04063532892738602,0.9695917845445516,0.16482881324627427,0.014122513262839585,-0.005950417761157825
440.0,-0.8505587245972577,0.011805882143999595,1.0064798711254026,0.18552131195587546,0.007476262136630952,-0.0015109033677319318
460.0,-0.9087207428509156,-0.013167260529978183,1.0303281265663042,0.22281876224894046,-0.004436168121978888,0.010969259835757115
480.0,-1.1234568158338971,-0.025688280838784903,0.9821132889738602,0.09488115151103418,-0.0007021525880148308,-0.00040392702783299036
500.0,-1.1675347058384664,0.03141809970437637,0.9995420229234265,-0.028326159352436497,0.013387253318969351,-0.008509721166373977
520.0,-1.3043673319620293,-0.007411364708724548,0.9864618055367174,-0.16078221890139607,0.007392075220000423,0.012348135674365567
540.0,-1.4023892187176514,0.004854655510883321,0.9730076278696982,-0.18864002567763952,-0.007682949188939065,0.011918674754978511
560.0,-1.4096942982772969,-0.013542715520705689,0.9685420986865348,-0.2113771296073163,-0.0072535795141178815,0.010084232948488387
580.0,-1.5379987126056045,0.009459436807215357,1.015415985746647,-0.07927796693870709,-0.004829087307590931,0.0009325820295347951
600.0,-1.4990700132614214,0.002278814207867706,0.9905696815454648,0.0578298440716407,0.002226178557072071,-0.002719484492282237
620.0,-1.4112227522769454,-0.010010915727126105,0.9789078231337209,0.13122877658008633,0.0009191028018338938,-0.015384401044784604
640.0,-1.3996622079736367,0.01987707828547027,1.0021190792636598,0.2036109649912188,-0.014865821465925038,-0.0059488381704009535
660.0,-1.3192312417925645,0.014010769159932724,1.0063356731899624,0.1736251248014578,0.008414617467245353,0.011709899931081518
680.0,-1.2691314600581003,-0.0032994967906378628,0.9957305081575266,0.07723274593580824,-0.014698387759441229,0.0006722512993938743
700.0,-1.1595983778356007,-0.011675493756046354,0.9795779681452471,-0.03080288974183499,-0.010429855393147119,-0.011607134147206962
720.0,-1.0198536868030077,-0.015432550655404938,1.025090990479769,-0.15946412283857114,0.013171306781536508,-0.01150086624601168
740.0,-0.8514791164506256,0.02085454710693708,0.9945943845566004,-0.20862768022344244,0.007266798894279462,0.013645620851248206
760.0,-0.74169224222211,0.017538996274652517,0.964132562762059,-0.1807688239271414,0.007238273294227037,0.019300483389948008
780.0,-0.6739422912167021,0.015576917103507915,0.9914627238025693,-0.07674686565265493,-0.005992591710957904,0.0020146497620693667
800.0,-0.45282687827895074,-0.004433101277592927,1.0189897520445201,0.060975191699355294,-0.0039786495871276155,-0.002664805844953351
820.0,-0.4160856527625334,0.005174266153805058,0.994992842332732,0.1281019007777302,0.010165963975764114,0.01098918900158509
840.0,-0.33710535545181847,-0.00637215247885708,1.0037266852586926,0.21566850275622818,-0.013490666915418892,0.009951401103635812
860.0,-0.31916327938731454,-0.03337069989175002,1.0264592978874205,0.15887016383389863,-0.005590238253002243,-0.003251248743028064
880.0,-0.1639742605827007,-0.01677505693215185,1.0036627358742507,0.07218210495579878,-0.009273840693836464,-0.0034744127743764385
900.0,-0.25063816760861163,0.0020458613016565612,0.996346682213626,-0.052866414561191497,0.010223257662831019,-0.00455920785200077
920.0,0.0014883647152838797,-0.03934561763108367,0.985139976335992,-0.16784388344842868,0.008274367911796022,-0.000582681790865928
940.0,-0.18724728502873098,0.0008630984946594228,1.0004486845918559,-0.21250351553394667,0.005916940298914999,0.008874275271505435
960.0,-0.06035088693916494,0.03123766151507377,1.012497815665767,-0.15637069869105102,-0.005804373717119684,-0.00045628886023207953
980.0,-0.07251471675483316,0.0246599866088326,1.0110169683096226,-0.08356942704581702,0.009648770618373933,-0.011744546579638599
1000.0,-0.1560612173850791,-0.007149219206611545,1.0238139415800616,0.05290861610880995,0.011227075932120053,0.005162747303959186
1020.0,0.020022726903687626,0.011680602733812018,0.9870130092054489,0.19034536819899672,0.0031714767005549815,0.002714041326443257
1040.0,0.04758213391993253,-0.029437715294936006,1.017753457312636,0.22066593942477783,-0.0020271647534627867,0.008271727496391584
1060.0,-0.05655647376404845,0.021550202817437816,0.9749128427702822,0.16639579140571054,0.0030200583571913103,0.004729919802766024
1080.0,-0.012707716654714651,-0.01599817190925679,1.0060332892564943,0.0747439818159486,-0.00155035721153431,0.0030559152263363388
1100.0,-0.05316267675176054,-0.039986490453590755,1.0133859364225548,-0.06254283443483917,0.004362770687474005,-0.007042045267024766
1120.0,-0.061498763576104475,-0.0495189445565946,1.0074674127779624,-0.17848143662612692,0.006436322712080751,0.018855620581727527
1140.0,-0.10434339426753611,-0.05122667669283538,0.9774436484223525,-0.22194902272694403,-0.0034523228109791353,-0.014588055373446608
1160.0,-0.01118464187327988,-0.01161832422003334,1.0084138976641002,-0.1498637264017994,0.0029159618017633292,0.015516575237174451
1180.0,-0.09516271725625532,0.001058842539365912,1.0029618677717036,-0.07710351904010689,-0.0027708859224098363,-0.006295897544491118
1200.0,-0.02612286327305944,-0.0008493810273384461,0.9891753674264406,0.0792328800288907,0.001084933989440385,0.00588775202584652
1220.0,0.048073348877528344,-0.008199215006920748,0.9984450350730772,0.16263023815449107,0.002766991351792103,0.0008409363347260152
1240.0,0.021322148587999253,0.004602697848233702,0.9933137045826517,0.2261473133653079,-0.0011149202075376818,-0.009216012960214952
1260.0,0.033028734329517244,0.0013141826470292179,1.0037681370392835,0.14088266150533368,0.013131355778707337,-0.019581846357353445
1280.0,0.03987751587134641,-0.028732908332305206,1.0141088965775584,0.04765324700225993,0.008002325381385272,-0.012869379451054815
1300.0,0.033628816799022326,0.0073837617976278535,0.9735133672428504,-0.06785993925228762,-0.00620165796947796,0.00852825594849008
1320.0,-0.1264499854713883,-0.02029482692883953,0.9836215951287708,-0.20374544635237204,0.004255993900699926,-0.005068523770784912
1340.0,0.08519968499778159,0.039467410174404687,0.9888873701116867,-0.2280159637462938,0.0008666615783079722,0.008067670332983558
1360.0,0.006943782527437126,0.011918791574450336,1.0427424613712646,-0.13209381538998108,0.0009756732767831712,0.008188860507129529
1380.0,0.005870793354528116,0.014670146488881044,0.9986774923029242,-0.010057582076518887,-0.015318230101785025,-0.0059153346848250955
1400.0,0.0168103091352212,0.012316867163853547,1.002359602638211,0.08244253381960504,-0.0010960514010652706,-0.010015561434243621
1420.0,0.013286409867587457,-0.022810985855743683,1.0073223714423474,0.14355718178312576,0.002207271883542977,0.0023788121615068666
1440.0,0.04703359432418928,-0.04110294091788831,0.9516890226502849,0.20985118835111982,-0.017364008227134516,0.006758227069518655
1460.0,-0.08539489210367278,-0.0016856611499085348,0.9869660701783717,0.13061076436914457,-0.005630092569356529,0.0004192982194088268
1480.0,-0.039302057296584036,-0.013435260274481907,0.9966957056873013,0.03262116925403785,0.001733071498337214,-0.0041914701561371346
1500.0,0.04337091012232351,0.017430560998138934,0.9485375417543561,-0.11401299466180798,-0.007121142037540487,-0.0039210692661122565
1520.0,-0.031413986734558905,-0.003434866446898309,1.0275206382356847,-0.15891427652697454,0.01588364761718212,0.009044155708916009
1540.0,0.06276732492284796,0.01007765872335473,1.0215158625187124,-0.1609343817922962,0.013046285160825769,0.006978258709798382
1560.0,-0.018523088421684417,0.0043284068420271354,1.0130583036685266,-0.13166477627931186,0.009288906404616987,0.005947142057107514
1580.0,-0.04623280516160046,-0.006589731963171869,0.9893534705532634,-0.0520710749391779,-0.006093943037821513,-0.0037978384595776017
1600.0,0.04121320054070826,0.03501018695728408,0.9662310916077644,0.10643972262680569,-0.007915919551549959,-0.00469210406997574
1620.0,0.018770616245458654,-0.019721607847934787,0.9895590796692632,0.17003590146416542,-0.005697798023460932,0.005691176454057184
1640.0,-0.05070692628658703,-0.018186361725189223,0.9954932063620022,0.26195900665748817,0.005751703205614104,-0.01030275113282835
1660.0,-0.10179732217035053,-0.044696693843454885,0.9715000471709003,0.1050492650591551,-0.023337609847955215,-0.00029671103128532325
1680.0,0.021100834734629287,0.05078555040670301,0.954904509690849,-0.02574796434725176,-0.008107299885128424,-0.006682716100990583
1700.0,-0.10196821717502332,-0.006587090868971696,1.0153040291859259,-0.10402487118381756,0.010994502945017255,-0.0012513522268796898
1720.0,-0.012982719461490223,0.029797209433363638,0.9815582386834195,-0.18139603570754337,-0.0036122875775042164,0.0075016257780978046
1740.0,-0.005342429925123967,-0.0013353533765032772,1.02166351972297,-0.20153702545103933,0.0069921997366510415,0.001097504114578019
1760.0,0.018318409787358665,-0.004900188314697067,0.9993115510703817,-0.12223928328158519,-0.007371624535797654,0.006603822846773455
1780.0,-0.022707607627653906,0.0004259961017970837,1.0291822208099073,-0.026246369642294234,-0.007270606260484088,-0.016839142998106776
1800.0,-0.02761786898754127,0.020473362140952724,1.0095876579763874,0.11827143131512273,0.025065065358888954,0.005648136492778519
1820.0,-0.05323028361815651,0.009301500114666366,0.999619045791513,0.23420405733428443,-0.011175860615203051,0.0039012434108182067
1840.0,-0.020458320541326142,-0.0013284420286310274,0.9945770905835545,0.21395085986262438,0.007754766937878722,0.002014634132438254
1860.0,-0.06388925401815003,-0.024147639749604894,1.0226697483404872,0.13479497837540297,0.01262862136733292,-0.0005330331929212182
1880.0,-0.0037374096241670454,-0.03408771108938033,1.0315592557392579,0.005510197983870155,-0.0026003863053002062,0.008909318457515426
1900.0,-0.005382337244324132,0.015924144182190313,1.0295082652950143,-0.08002872251379715,0.006916462349732028,-0.0003333973154504062
1920.0,0.03244974589024738,0.02794085680821957,0.9879040081798109,-0.22532305979067485,-0.010697965571014958,0.018645372251440903
1940.0,-0.03762705836243903,0.021817142841322204,0.9946004014854389,-0.17781612457902285,0.014742158990458552,0.023929082440845042
1960.0,-0.0649064461346221,0.019252042232795422,0.9733091352413643,-0.1358859802019458,0.005693163115683162,-0.0067413316599410624
1980.0,-0.01596018465629653,-0.004462597143648413,1.0027986217790594,0.017940424387815197,-0.004329848574949692,0.004933356418365689
