timestamp,ax,ay,az,gx,gy,gz
0.0,-0.0982663168841646,-0.02905600400715908,0.9777763366511273,0.0025780221006912146,0.005211875444708778,0.008753440326938249
20.0,0.01491426075235774,-0.008264101341323729,0.9874493165729297,0.11825490964075988,-0.01338650285056253,-0.016331247482088557
40.0,-0.004213303231607549,-0.0016261412854467394,0.9686602576053581,0.18145433483827386,0.008327888910999167,-0.00851690642712012
60.0,0.010058696796242161,0.01258564528326918,1.0204507660159747,0.19191970841725817,-0.014405624930552986,-0.00764646387969672
80.0,-0.04629248690227185,-0.02451792573193075,1.0029657561872922,0.1286312437042581,0.0007295938286112689,0.006157698800932
100.0,-0.07383325903925722,-0.02732025450325163,1.002483353254056,-0.012144502500595773,-0.00703930030797395,0.0007085455164307317
120.0,-0.015043600134008697,-0.006642974739890494,1.013588685451819,-0.11738854750713443,-0.024083252552987697,-0.006500480847101865
140.0,-0.011187704902125768,-0.001493938329886763,1.016055952945244,-0.2029057070191511,-0.023748147427687605,-0.007655322245798907
160.0,0.032709587431062684,-0.0001281376700077206,0.9687117059585866,-0.16775360068886214,-0.012319753818345028,0.002845159347766841
180.0,0.015100058849176635,-0.02345896618635994,1.0351590879236667,-0.10805861872033969,0.004183598326123889,0.006898277809267882
200.0,-0.005614223226587653,-0.0011753170446127685,1.0029738597781084,-0.012436406842864475,-0.007992270468045,-0.009525258349214229
220.0,0.06833813896720745,-0.010272683992392815,1.0139972351525979,0.17145987788831057,-0.004099877348991929,-0.0011599158103799527
240.0,-0.01069235018950327,-0.011870768068121576,0.9982460722409081,0.18088493377912784,-0.004137591699021726,-0.006837256497534266
260.0,0.17986370509139654,-0.0009121208989449712,1.0305425186938089,0.19181099541680915,0.005001557342629306,0.00991356529332939
280.0,0.15004758463325524,-0.003490440418851476,1.0025829855447326,0.1057692460618606,0.011219074047952447,-0.01927452575853196
300.0,0.23797749065117435,0.03481343777164446,0.9910114194277292,-0.040178323785608525,-0.004333118517952484,-0.008875039155119325
320.0,0.2131581022997455,-0.021591823638433285,1.0197776897954636,-0.15642617796558184,-0.007975860635293023,-0.007724909255626465
340.0,0.36544374965519527,-0.004754532749215209,0.9942530661573412,-0.2169564183857295,0.008790225553445871,0.020222420178119198
360.0,0.45094602274131323,-0.06356957237069759,0.9960431487716223,-0.19851923773626007,0.010286079520569421,0.008594628590527037
380.0,0.3717959320464927,-0.004647042858105476,0.988523431974788,-0.11496283441797114,0.0007824857011449948,-0.012439896046884415
400.0,0.5685251455860346,-0.0013820585649302309,0.9705638592985365,0.05401990684716221,-0.010892169059534846,0.004730390441345824
420.0,0.8408464034556378,0.009998842580986505,0.9724620499996488,0.10814020610415072,0.006176271655901525,-0.018377282060195583
440.0,0.8396699006940233,0.033006791154974506,0.9579797204077402,0.2136504112135622,-0.008002531986929344,0.022396395662837274
460.0,0.9429177565726163,0.048489883378594834,0.9617654706252298,0.20258594607021232,0.0033907646516443475,0.012825337701351492
480.0,1.03497665479071,-0.01291959379172207,1.0300050124940385,0.09267860315624023,0.00848761593822173,0.006162105503350385
500.0,1.1886910413832075,-0.039267782952063124,0.9799147681268676,-0.031599144354771416,0.013565511582379425,0.001030969272395347
520.0,1.3158380847158484,-0.0008304622973610505,0.9569138836756091,-0.13019429430415522,-0.0037231017334833968,0.019186454699801438
540.0,1.4323224588153964,0.006530678249301443,0.990402601517969,-0.19361524604993574,-0.010895971846730147,0.0012463242378176046
560.0,1.483979842308894,0.022238377552479895,1.0288690338157722,-0.1613737779005355,-9.307681558937032e-05,-0.001203310413095093
580.0,1.475237215963497,0.028485146181971878,0.9891953027574106,-0.10196352839280741,0.010121198284051867,-0.005936159222099204
600.0,1.5098032454447086,0.00664301491352834,1.0274882317690495,0.04981937802331589,-0.019532331169030415,0.008484924499299632
620.0,1.4965959091842154,0.011858122936216891,0.9994745859577678,0.14396898382587253,0.0018009417293099225,0.003174706494816864
640.0,1.4418567716894126,2.9549953780670303e-05,1.0272154980431147,0.18847375928661264,0.00586879486149879,0.012587544737184193
660.0,1.2914142011945486,-0.004228158724074441,1.0006951811911358,0.16467818188418,0.005380964921323401,-0.0121444197643803
680.0,1.1954049056708635,0.003348089563211146,1.0020115982648226,0.09739839712368234,-0.00913357425082748,-0.0044012935866985965
700.0,1.0968162482489432,0.004436983840341842,0.9889051662893664,-0.025566231869599814,-0.0012903680795748485,0.008995743652811958
720.0,1.0734809163255552,0.03058165105328239,1.0091830787199902,-0.12726852660135202,-0.030139171232037753,-0.008956017146769772
740.0,0.8325140943888778,0.010483320575119897,0.9903944775111135,-0.1765643647435621,0.004458160276445614,-0.00781671969980718
760.0,0.7125369323310717,0.0038851048248565246,0.9883315439277063,-0.1717899104063233,7.41329910796874e-05,-0.0001679286564261485
780.0,0.6036959777103191,0.014548807941583175,1.0113553728630478,-0.07135668231391958,0.006183860120134828,0.0005849349489911663
800.0,0.4851377778920186,0.018752618891094648,1.0104970374122506,0.08902793727647798,0.003690209991593493,0.0022410908776294377
820.0,0.3932993453036341,0.03485519614401028,0.992523296770563,0.14102255749234713,0.008854029485127028,-0.0022467660593714764
840.0,0.3008325595135171,-0.02658091715949816,1.0114891935874943,0.1615315324439195,0.004080427775506935,-0.0017049818161680498
860.0,0.21469665256660803,0.005118207638443677,1.0041681021963105,0.169535508048235,-0.0017519760047204917,0.0009735229465578344
880.0,0.26528879636807595,0.0010196154571497434,0.9900403726136936,0.022754655409181153,-0.006848031275842657,0.01432221584291446
900.0,0.0954998866156622,0.00373033212378317,0.9919379783767286,-0.08373200570590368,0.0008278116542429061,-0.005087006839719944
920.0,0.11448629121451671,-0.0068251303030474,1.0028264054355598,-0.1450334564150232,-0.00641826892530254,0.013561236714315195
940.0,0.08311787246530702,-0.0004906187299416102,0.9744248407424091,-0.18028757558602992,-0.015315323960668401,0.005785209453440401
960.0,0.0051799453326999145,-0.0032233064521286843,0.990130311973529,-0.17717355520883749,0.00673479386305432,-0.006895387659459869
980.0,0.018873187391616517,0.011781401707007309,0.9885510932610708,-0.06071460590877605,0.009681509848224813,-0.005409437451811249
1000.0,0.00988768071282001,0.010792683365298768,1.001964336336709,0.08872441058543057,-0.006104295594085435,0.0032285866755964988
1020.0,0.018066313015588996,-0.00606978283527315,1.0098075907253385,0.13552059013588963,0.004109884864627795,0.00014812099416676303
1040.0,-0.021867658257387287,-0.007021599745949048,1.0183103844618329,0.18260812080540367,0.006543316068515846,0.0029045891809299645
1060.0,-0.02354218521612054,0.0026295897314457194,0.9820188381082544,0.1394828361573431,0.003411534743917819,0.0030801111191697183
1080.0,0.06538787377139534,0.02753506298940846,0.9882272989538625,0.09272676997035163,0.011311217203539774,0.00929986708743304
1100.0,-0.08014944232342243,0.017393725116034472,1.000702887653356,-0.05047563262055384,-0.0024568203017043488,-0.013102073417385405
1120.0,0.028884932471473806,-0.021706013607652168,1.0221803830870666,-0.1731221409100843,0.00971061826456212,0.011443525267049608
1140.0,0.02564912481688574,0.006562673288144807,1.00034762132656,-0.23304371450003258,0.005430161785677003,0.0022353209665780887
1160.0,0.06861825803307713,-0.023136881085166996,1.0135284146963444,-0.13937742244852486,0.01043300151354913,0.004351110527941629
1180.0,-0.08957409032780712,0.01082684215558886,0.9778879750789338,-0.03480089876841869,-0.005604265019525048,0.004641488526078824
1200.0,-0.04603594487153692,0.04106355912279887,0.964997669145302,0.05046902688494828,-0.0032664345436374275,-0.02130416272509765
1220.0,-0.012991031771723947,-0.016092744103199993,0.99958520838922,0.19583173124859682,0.012989808893083751,0.007867614659255472
1240.0,-0.015856821879978725,-0.0025282401796100614,0.9782589382778897,0.1960111221966257,-0.0020396165151269794,-0.0014985416111727215
1260.0,-0.059661985637518296,0.004375690727529558,0.9829412886450118,0.15028483226804593,-0.007962511736549556,0.0010433902023307664
1280.0,0.00803876638484126,-0.0006735804037547116,1.014655706144237,0.05210749859563512,0.009360940895739519,0.00201867601020569
1300.0,-0.05731518031506239,0.008721917205855285,1.0130876261455375,-0.09799704559625143,-0.014574700783277356,-0.008704040453728754
1320.0,0.021075165263727928,-0.0053154412111472305,0.9678865386862252,-0.19000058471813838,-0.005389912735859544,0.005460965016157919
1340.0,0.030994925699420986,-0.01332908807708115,1.030197919623631,-0.19262946282742768,0.017564152556836705,-0.009972382643405922
1360.0,0.03589041951223271,0.0012286150200062763,1.0359170522310341,-0.14636643758622964,0.003972708716798098,-0.003749996695772935
1380.0,0.07069507492123393,-0.007973927953441491,1.0139651412529407,-0.04331198213707779,-0.025746833862685798,-0.0088932164438521
1400.0,-0.005137635370778359,0.009434897709318178,0.9893129588798317,0.07845770172096347,-0.011028532844116123,-0.010371898684044662
1420.0,0.01167267761331033,0.005793781773225069,1.0071348150530732,0.15071571305463244,0.0047534640671642306,0.006699774944986845
1440.0,-0.03221257551071679,-0.012374267850180018,0.9830160686555491,0.19333522359413835,-0.003614250189060763,0.0015089297785714048
1460.0,-0.10706118596826229,-0.009321763206059,1.0212831625839287,0.14953046886902638,-0.003003727109533706,0.009451901555585522
1480.0,0.056209622230465384,-0.02290581050520713,1.0243356651120599,0.00949454601178312,-0.018409514559511946,-0.007620987286755016
1500.0,0.013689689935313514,-0.011172675046007545,1.0354775172379578,-0.12233847202790907,0.0020192982961980076,0.0037587055363892843
1520.0,0.0549367316796339,-0.014646620752332529,1.0033152812935155,-0.14994580925448542,-0.006057434550028856,-0.010327807978336835
1540.0,0.054399486388579034,0.01041106267712735,1.0179513806607907,-0.1827121604142637,-0.007587869826242166,-0.0005002369769251491
1560.0,-0.06090155879450482,0.036028952457854785,1.002830610986733,-0.11762974403328723,0.0022567995356868546,-0.007165874730347769
1580.0,0.09047292573380566,-0.031232941270735805,0.9854250264979342,0.001403650430976719,0.006095728884506422,0.01412231533246682
1600.0,-0.07198310083405013,0.03765952457320362,1.0285467048860462,0.11754515982722956,-0.017034924944486544,-0.006442035625483953
1620.0,0.09756853375271987,-0.020706963651671715,0.9969279316035503,0.19272335141267197,-0.003363130737023577,-0.00944055150637674
1640.0,0.02674747800401918,0.02177122643152992,0.9721228112085932,0.19802141271204868,-0.004478322248419251,0.008269308520454561
1660.0,0.007651416688083116,0.03742896718420191,0.9786968376720935,0.1352517706647941,0.015113795499797099,-0.015301875416756013
1680.0,-0.05942743816590916,-0.010421752497339454,1.025075747799409,0.02323038970489759,0.01031666872296829,-0.0033839553589172303
1700.0,-0.05209851612695349,0.01003745646117137,0.9893172923204137,-0.0988370187297801,-0.010051133131756474,-0.0030848724319572493
1720.0,0.017836516185095824,-0.012136555400344575,0.9861632750578473,-0.14285277702044435,0.0015948797743401723,0.006689844617111263
1740.0,-0.08017453761860562,-0.001911540859224499,1.0214717193401968,-0.1661373356108754,0.004881742043885969,0.0018555604892033367
1760.0,0.013294802423373634,0.001958442746466328,1.0073226006680038,-0.1305268503716535,0.0026277523697838317,0.015294146270897476
1780.0,0.011128328659461192,0.008920695163533223,0.9640388091761353,-0.04332358061168752,0.004325252657346596,0.0036550192190197574
1800.0,-0.007513995143396774,-0.005371907897355329,0.9979560841622898,0.0696253578316875,0.004974985893860638,0.011891152830625633
1820.0,0.031942131502738474,0.030403415226753633,1.0084724308958273,0.18695449732475802,0.008514011891057865,0.022806756993730817
1840.0,-0.03893247494189656,-0.01731793732487991,1.0280006835425357,0.17389510782409967,0.012974447704929778,0.006081289825881206
1860.0,-0.014536712635230825,-0.020652104696820404,1.0316843887690226,0.12543869065149257,-0.009478430081645943,0.008723113138975403
1880.0,0.014490116530841417,0.03603366276884652,0.965089446072787,0.00650478128442873,-0.000448568697821858,-0.0016988420466710922
1900.0,-0.08607984390047663,0.035521583766955286,0.9964472876200393,-0.11965105858368007,0.013214183221463482,-0.0037855900326401737
1920.0,0.06250940768779725,-0.008349938988292631,0.9908243239742116,-0.20911102150290786,-0.005689082499043117,-0.00828890291795013
1940.0,-0.03909194080037573,0.020572478338239823,0.9545828417225521,-0.21268221291732223,0.01718129260903674,-0.0007043789660797876
1960.0,0.034286066044789336,-0.0094531684490777,1.0149305178639332,-0.10635079609545148,0.0019100638966689635,0.02455741361345361
1980.0,-0.03004528322782068,-0.002488988217405219,1.0159729789123442,-4.545965728459709e-05,0.004441808390198058,0.0007629050869423224
