timestamp,ax,ay,az,gx,gy,gz
0.0,-0.01886609284048156,-0.018547146930748392,1.007395832952575,0.0058196382956206705,-0.01140953956325302,0.009364061667629476
20.0,-0.0058715015536271375,0.007517227121740874,1.0105687495127724,0.1291011090912253,-0.0033211353792427503,0.003211140368660103
40.0,-0.03992820522267861,-0.00953509724549792,1.0231780528808714,0.2396727058587963,-0.004385256625175495,0.006686722439384815
60.0,0.09305364802961744,-0.0026803760183802877,1.0021460863979568,0.18031346881385074,-0.02315207614288605,0.0004664020777859894
80.0,-0.008735454391103625,-0.008093139674818776,1.0216145915610766,0.09328657617350491,-0.01420971154810854,0.001955504456745766
100.0,-0.08117604595199374,-0.009084565121268158,0.9868780787163238,0.016988507395377286,0.014567763443799776,-0.017701262607142613
120.0,-0.07842055449822553,0.027705015592510755,0.9875267327666912,-0.12423727183719896,-0.0002480722711392532,0.005172415388041984
140.0,-0.013142884365314142,-0.004017596651886757,1.0074648419721768,-0.17048558513291354,0.0031744289016137177,0.012126493467184914
160.0,0.027194375081826046,-0.012517570055151755,1.0101045833597366,-0.1690738312244339,-0.007035029575159028,-0.004911071908691125
180.0,0.06796976625707005,0.023155922045696168,0.9583431130736408,-0.04818564545389259,0.018128985562639404,0.0101425764171096
200.0,0.04921621486537965,0.012208543929190808,0.9762962900315182,-0.043765326987070766,0.03197317142830816,0.017752546983901045
220.0,0.034983729686783344,0.015206978872126194,1.0033819706210867,0.13122937178842933,-0.0006456232324403276,-0.010413492373435123
240.0,0.07377348848236653,-9.481854989556952e-05,1.0071728564228857,0.1698940421109936,-0.007298399781983843,0.008812631944310395
260.0,0.12830175597297797,-0.0377271713166095,1.0296494392850977,0.1366723037441791,-0.0002899756035437909,-0.010624904336116871
280.0,0.08299182323685708,0.012606489730796516,1.0317113719035529,0.12051972716083217,0.02418733075080416,-0.02692166885857195
300.0,0.15312439759797866,-0.022380984833273318,1.0189724611543263,-0.021916682917590545,0.005028725548871827,-0.018521193964387093
320.0,0.2543563871474294,0.015218096400825663,0.9876877344187617,-0.1373267184687327,0.0128261140352262,0.002117601665139569
340.0,0.314284248259167,-0.007196380325293326,1.006158200310829,-0.18565732267786328,-0.0018698327154709898,0.013035106110904438
360.0,0.3562322748543328,-0.005758033938785001,0.9948607527608442,-0.1785252237743635,-0.004841742639116301,0.008957142225202261
380.0,0.5054842655762131,0.011444425579962135,1.0159963502197564,-0.09711857654492857,-0.019831727639223896,-0.002450542873122782
400.0,0.6152391581193959,-0.028364231896003306,1.0045791539063926,0.02986572332400969,0.015858982811095153,-0.005686459748107505
420.0,0.5979656941798189,-0.020323649133565366,0.9816325282916325,0.16070822281406766,-0.0006825862963587768,-0.0021324554269143863
440.0,0.809150412882561,-0.0231811361480615,0.9765251003592254,0.20350664961457968,-0.0004680054441488734,-0.009067288984923344
460.0,0.9473727109675315,0.009356615014318224,0.9726561863739973,0.17038167262996334,-0.006514978247552011,0.0028010671027870622
480.0,1.0773906792046575,0.025951905369710364,1.0077524759578258,0.06446054833220986,0.0004012865728997673,-0.006163591581366341
500.0,1.1827813174363584,0.02016542554761998,1.0042830483374372,-0.01254805029848816,0.014023812627835464,0.014297016744968685
520.0,1.2468702047987363,0.011669922052177291,0.9923796558135374,-0.13727276095659854,0.0031928606966181235,-0.0013733445118254215
540.0,1.4060940203061878,0.020680133060936898,1.0084812833343446,-0.20369281826984578,-0.0035515163482901604,0.011003129277046454
560.0,1.506250722997887,-0.008932981476426252,0.9922676048902397,-0.17063752079832314,0.0027699656300948193,-0.008963616402123207
580.0,1.4307121974824657,-0.056035711981201726,1.0080629536960066,-0.0897671319444051,-0.009773001055354514,0.009957620478810795
600.0,1.53876030462922,-0.010861921435200489,0.9914583467437286,-0.00929882614094283,-0.012821112941054461,0.002782090716143027
620.0,1.4481063458081287,-0.03355395498911066,0.9769619561312213,0.15844221367048564,-0.0031722303901790404,-0.009837872598740185
640.0,1.4645022625471236,0.005096127333016391,1.003989312362549,0.18590610406485555,-0.006203347963723527,-0.001224691590064317
660.0,1.3706429350790217,0.02104122581458646,0.9699646472491509,0.18427703431407003,0.00713911279621129,0.01311957253645801
680.0,1.1408692795305337,0.021694024794725812,1.0277704659511895,0.08622223529496222,-0.007226254531101229,-0.0025359138075872886
700.0,1.1547315253053168,-0.03974282580170361,1.0071331366429905,-0.07481108702355058,0.0017249068535895938,0.0013300162703444676
720.0,0.9942997667289208,-0.022520243923391695,1.0332834337428782,-0.14600399586616833,-0.004427785913609947,0.010884727683834236
740.0,0.8606775646678962,0.0016482708759025205,0.9767737192037441,-0.1965225018613702,-0.008202554219683328,0.013716989093163457
760.0,0.7658703503234674,0.02236995820080665,1.0111317023537156,-0.18148258145961355,0.015327065093620884,-0.010372231487041767
780.0,0.6215151377875575,0.0269615035628848,0.9500838981084354,-0.07815428583084916,0.010430039561301998,-0.012838334300850887
800.0,0.5463790012224585,0.001161852302508249,1.0075761686146878,0.06405519716943406,-0.012156297107602972,-0.008404567753808542
820.0,0.40737441331286073,-0.0076195101076050485,1.0006650016062073,0.1708107563352415,-0.008117198187245657,0.011212727536293671
840.0,0.4269926221846891,0.007793607218848577,0.9791632551873519,0.2117004368970003,-0.003209818176104462,0.008053075391223994
860.0,0.2538782294331475,0.02526565095235364,0.991163012483933,0.1572002435873371,0.008146802738472183,0.019412287313498772
880.0,0.2582079768933382,0.01913430294244407,0.9926847381130831,0.034719895513878635,0.0011063212574026703,0.0034129418675471275
900.0,0.14271687423777152,-0.011279225058334353,0.97910840622055,-0.05890468171518446,0.01516495503898899,0.008936992777567307
920.0,0.04315100558445741,-0.0025721786225937756,1.0188648203132082,-0.16632645097221843,0.00657868424469622,-0.009377472900446446
940.0,0.04389415251720535,-0.011149731612147773,1.0052090862200587,-0.197356151785579,0.01119371419175391,-0.00038330145421931305
960.0,0.0010145968110438774,-0.005969632874542025,0.9719146545682212,-0.1958207804919786,0.0025445037722985225,-0.003394378086393064
980.0,0.027193467718101078,0.02256565880643056,0.9959664202871237,-0.08677614504384579,0.0044167776420522735,-0.003322642093884373
1000.0,-0.010353602810879187,0.015251236552092038,1.0314462550714256,0.06014441591084382,-0.010526771514551461,0.021388357077160008
1020.0,0.03130501272640676,0.03709824374912999,1.0175267814752316,0.13149580189828322,-0.0032003499294595275,-0.012021983554108566
1040.0,-0.04235346518550463,0.01564930351611158,0.9979805618194754,0.23493824064893593,0.007578571395709991,0.015310241857871824
1060.0,0.012191580883825583,0.016908122512600612,1.0489532952067648,0.1983871170894037,0.02525852248171574,-0.007582114682698217
1080.0,-0.019236470002855065,0.0022354414487644136,0.9812476543961758,0.05122124743902496,0.01127715599660221,-0.003857406351959616
1100.0,-0.02104543825287518,0.018778218528853953,1.006171936756848,-0.09010662777518366,0.017166764357634583,-0.005783436765891963
1120.0,-0.003753200355420944,-0.01020000535657127,1.0020294821928555,-0.13513464699106287,0.005261348916144234,0.006305494439712107
1140.0,-0.00043450714490708567,-0.025411587396886752,0.9818291091959785,-0.1908691992339065,-8.324001104812419e-05,-0.013809446829651498
1160.0,0.012057263793117603,0.00024217756246101415,1.0052537551942968,-0.16985813387503626,0.008658561218679008,0.007740371583159162
1180.0,0.12490074547739412,-0.02809605481767179,0.9827465853104492,-0.03403738538410074,0.0023513750513201883,-0.004604365056784543
1200.0,0.08091476564725923,-0.011809317902253383,1.0172542286638906,0.08108917417452764,0.0046824409708352294,0.011774377877857978
1220.0,0.0650911112918585,-0.03304218152281331,1.0095876096247112,0.1383720031874451,-0.010617383444549506,-0.0034549286251920153
1240.0,-0.03155209290861841,-0.016678805639281244,0.9737554991196053,0.1962151863424126,0.02453443258751712,0.01625429488140693
1260.0,-0.03488720973194371,-0.006013543221656806,1.0116558249385108,0.14795174610927844,-0.007206395933558501,-0.008365684557291144
1280.0,-0.08306181458268631,0.017253045936696767,0.9980812707537791,0.02008767021051812,-0.012065742569258598,-0.0017750541103238565
1300.0,0.06892667197385918,0.019760324246005323,1.0330481053741811,-0.06926167488455234,-0.006705907138535261,-0.007896616615971961
1320.0,-0.06839208450578474,0.004257296194038983,0.996085482399081,-0.17418313953774175,-0.014637161152864236,0.010458289715527851
1340.0,0.018659750009927333,0.006023625503351908,0.9814423532959833,-0.19313941660393966,0.0060585194486557,0.012365462353747103
1360.0,-0.03254795059219597,-0.0030814677731489334,1.0013705612217978,-0.14704465123151486,0.00869172178207652,-0.022107169618756587
1380.0,0.01870766496662698,0.009126437906279827,1.0097853320523678,-0.0805235989918853,0.011810190083131894,0.01005062323342322
1400.0,0.03942259218965822,-0.0008682697299371259,0.987565296523965,0.1226622597353634,-7.5845483853953065e-06,-0.0028252017522647976
1420.0,-0.0200497675079843,0.007320428154676432,0.9799755961544292,0.1639279086823394,0.005662636715804881,0.016885605399914683
1440.0,0.06614488527450545,0.04130166067858457,0.9841090986564492,0.20771487388928778,0.009991750985474272,-0.0007757780509783561
1460.0,0.06065368797847949,0.034791578533431615,1.0079293485110177,0.1476015095386527,-0.008830629405898141,-0.007331001522849833
1480.0,0.00020875007701472964,0.004795414320666199,0.9907679755822156,0.04258662880963375,0.015789744346698612,0.00783220259873199
1500.0,0.09359946822756925,0.005312447159610381,0.9895542514485516,-0.061474977636177874,0.0034469550418601007,0.006076746221130629
1520.0,-0.0314015862078122,-0.002042626391902194,1.0263231507589188,-0.17630348991310002,-0.019553686911554097,0.0007361650066898558
1540.0,0.07701745881581017,0.018287678762130513,1.0063124439104114,-0.2067943113755803,0.015632766049191935,3.9156115184738574e-05
1560.0,0.00662663644666258,0.005181978853716683,1.0188310847264983,-0.11144327484667198,-0.0033773793695054915,-0.008249201335508022
1580.0,0.0586606494712257,0.010677809524050544,1.0254016116945257,-0.004375706915765155,-0.008105186486110208,-0.009743532961754347
1600.0,0.033623388405884566,-0.020261857052965463,0.9660455394093663,0.09001911549091206,0.0011399620040318155,0.0028530245069053094
1620.0,0.005377823351210022,-0.000430492096467172,1.0058905357862178,0.18696794696159066,0.016891695382396207,-0.005835076270236509
1640.0,-0.019569545070196627,0.031535154719001576,0.9935412345821419,0.18523803216844736,-0.0030677382503784033,0.004846328413828065
1660.0,-0.020271265866514326,-0.025577938677279356,0.9777846211174719,0.12262301618853524,0.007522763929621126,0.0051234008072066056
1680.0,0.07678475148964738,0.010002434459245604,1.0112831362229697,0.03405044355382424,-0.005670885457339101,-0.0076979705675242985
1700.0,0.06893229113555849,0.001963414867224238,1.0314993186383492,-0.07957636998264075,0.0011102726297230199,0.011682527526732303
1720.0,-0.02625560833010038,-0.010731040705256007,1.0088462181235658,-0.1671603392605936,0.0010993813307599296,-0.008003051192218372
1740.0,0.045636056318954135,-0.01761497602348104,1.0219879924473618,-0.18777631285007668,0.014513567182368656,-0.008976349056672786
1760.0,-0.011726805835970478,0.0004488631588934286,0.9991920920494644,-0.1297449243903859,-0.014555994567496249,0.0020791444138318965
1780.0,0.0862792554593923,-0.005704216497427504,0.9590858870461126,-0.008664893563954579,-0.002010063261561656,-0.012725563224540513
1800.0,-0.09465532536917148,0.025136549632426043,0.9990606692693782,0.09229962912489074,-0.006292019094042323,-0.008192652660490315
1820.0,-0.020867015079138383,-0.0009695490270641832,1.0092572692435655,0.20212290220745738,0.00430109790102311,0.0002509859312101186
1840.0,0.003393054863383096,0.005334815425403756,0.995384209385704,0.18066071203081072,0.019879724591556815,-0.009396388158528583
1860.0,0.009691528088703289,0.015963986915716214,0.98886668295257,0.1566902026785555,0.006229021415361725,-0.002113580605015064
1880.0,-0.059743164478498825,0.006796512693627936,1.0204371502221141,0.03814201674823744,0.011331301808422248,-0.015441199287698217
1900.0,0.026801880151226323,0.002775478495903198,0.9799838341867723,-0.13205906011816715,-0.006320195082008222,0.009445572917453314
1920.0,0.06855080945440523,0.020979531790171587,0.9935504519096032,-0.17258302558468447,-0.00013242748824152676,-0.00449674866143956
1940.0,-0.06273678995590541,0.00022489525262952913,0.9889978050116247,-0.15173517812698772,0.00998933160983417,0.0026806258660229954
1960.0,-0.021072967062562262,-0.011659174204172782,0.9966716555047397,-0.11826864998600585,-0.01373154728466795,0.006931523818661494
1980.0,0.07508615840858598,0.005663187910223947,0.9772181318097437,-0.027369661185327767,0.005369707268357727,-0.008010716003939627
