timestamp,ax,ay,az,gx,gy,gz
0.0,-0.03414000217901045,0.0356545809921301,0.9691730351608681,-0.031229301168356247,0.0072614364107770205,0.001444775949969642
20.0,-0.055212638803058406,0.013157877458398179,0.977504846598699,0.11991879918358901,0.017060662786449566,-0.019890976490090584
40.0,0.0874529144899442,0.005505978243637623,1.0173202688807976,0.22388235884234958,0.0035629887079390377,-0.0018185369724221293
60.0,-0.00620665845190684,-0.003712090716188419,0.9882222710799761,0.16552010340427661,-0.002552740933118317,0.015328539168675022
80.0,-0.026892691039791708,0.0012539039197517316,0.998764762463843,0.12347414451465219,-0.011234876648340733,0.009734636463309302
100.0,-0.045374281009787104,0.0034593420423552675,0.998063626545487,-0.013210232498474124,0.011555112230602625,0.008156744890493384
120.0,0.02947170427622581,0.03930117992657778,0.9745519501376454,-0.07567466908503115,0.012631113723751725,-0.018769804767510924
140.0,-0.06053344908594234,0.015343903118995111,0.9526696273371893,-0.18355643773926003,0.004276277624642744,-0.0156144617740575
160.0,-0.03762103824679421,-0.02750892067773377,1.018253363725542,-0.1859179801257207,0.016347240141471122,-0.0036875575066258586
180.0,0.02467004152339671,0.005863088508969372,1.0211008904864096,-0.08551171802180434,-0.03153150630057559,0.010867498355772361
200.0,-0.0110362110034386,0.013707466806985948,0.998594825234344,0.011399849146599276,-0.0075799324041751735,0.0009262136677713748
220.0,0.048949424917144824,-0.020814731461703637,1.0438920327349068,0.10704674434399009,-0.003947414812966262,0.014026945408307302
240.0,0.0795321941357743,-0.01610708880839717,0.9854801941121463,0.1567520241126404,0.007604357611381523,0.04025763582658959
260.0,0.02822053500202787,-0.024615160953896043,0.9673358571093171,0.2103544390351511,-0.0021698957510187626,-0.0017383302531845594
280.0,0.16387414382335053,-0.04393942811288189,1.0316547367751197,0.08952813625194801,0.005728011958068427,-0.001573529690780616
300.0,0.15925485923504962,-0.009047716029998062,0.9694572921987441,0.0004753840083278997,-0.0016709060450151559,0.002641735702088031
320.0,0.20038317911530446,0.0005204262939281762,0.9992054772622851,-0.1666229329751292,0.017346146068496944,-0.01762807045147653
340.0,0.3010047915283217,-0.02929422717785409,0.9495585119106813,-0.17795742672745885,0.008963998261043424,-0.010174489812471075
360.0,0.41890890759653854,-0.012735970610622626,1.016061228932747,-0.20462276381500752,0.001433365588637824,0.02381163130190238
380.0,0.3919914208405212,-0.04050298360369551,1.02765144103383,-0.08752303960956144,-0.017995545033297457,-0.005457567598478369
400.0,0.5667661319145274,-0.026846383128732127,1.0206258730964588,0.011150720486458989,-0.00274638568445369,0.0036032247631754975
420.0,0.6771967900861081,0.00972053811646322,1.0067608814051694,0.1696287267815485,-0.003947473655700258,0.006537758149602936
440.0,0.862659091223034,0.030595124630876176,0.9816744992540323,0.22466119727070497,0.00430483169114796,0.019363881111078212
460.0,0.9013960507724474,-0.018822369554168796,1.0402727667219385,0.17031553379570785,0.0002565269091537216,-0.011819526966396501
480.0,1.0893850646353291,-0.028092700345216725,1.0024220210935204,0.09108562132121407,-0.0124104849935536,0.007733551881846964
500.0,1.1597209311226624,0.030341658117223502,0.9918054046006668,-0.012527484678688135,0.012887205835074531,-0.013460080479618237
520.0,1.2862892403792436,0.022986566498504946,0.9997980704604758,-0.12339642534436207,0.014893683520299256,0.004135670269301312
540.0,1.5093975385061225,-0.010740714236468383,0.9908494479184949,-0.2060458250249885,0.00040331163849098746,0.002251911108550759
560.0,1.41620513632811,0.006426741236740302,1.0091867112372312,-0.1886224707264981,0.004177981220754278,-0.0009575557416567582
580.0,1.5256633696238864,-0.00859229573558056,1.0198409912409925,-0.08188034968687659,-3.569336351239358e-05,-0.0075239914354960245
600.0,1.4341766500437703,0.025501797867008187,1.0031970796578031,0.034262971315617494,0.010843436052559058,0.002239096811760371
620.0,1.5435637014761527,0.026349122667807628,0.9948914811360637,0.14276982280297565,0.007143049352804564,0.01020559222496537
640.0,1.3883117424760167,-0.01934768341184463,0.9856733072101896,0.21124465482529925,-0.003133441539059775,0.02367462959941874
660.0,1.2839780735214308,-0.021533663570790892,0.9642560013748065,0.1910876091619062,0.019107330698584498,-0.008615731924401786
680.0,1.1048278029253833,0.01861863686886394,1.0018147381558828,0.08362321130702409,0.005611217767177667,-0.015352370260811718
700.0,1.1558324397920932,-0.0035717624858500295,0.9622206277225693,-0.045616585343899396,-0.009868721923869046,0.013612195725578273
720.0,1.016151328509168,0.019350323970894513,0.9899376949523017,-0.14428325682630122,-0.005858249477467444,-0.0056754295918696905
740.0,0.8357573502335148,-0.008625408077240451,0.9660876681351145,-0.18368239795289534,0.022056673419917416,0.01835342121286729
760.0,0.7568781686164937,-0.0008613300248858735,0.9861249413370177,-0.16030395083246093,0.009417100517770479,0.005975978630266464
780.0,0.634156790932878,0.0070035942321378265,0.9826266197548639,-0.060056538229232334,-0.004544047449435217,0.00625982644617346
800.0,0.4800062624138709,0.010207070073325433,1.0179666146083886,0.040280174939932224,-0.004817429707562645,0.006660487701692459
820.0,0.4443867534263065,-0.03175023829258165,1.0091929690610042,0.1738438172019075,0.021420792419749878,0.002504456274592374
840.0,0.34820077778028957,-0.003794364918342926,1.0093649517273602,0.2244409584891192,0.007509535238436021,-0.0014754529389220095
860.0,0.2705568845295686,0.014879129031474966,0.9942079276497682,0.14560010949846103,-0.016275407457702343,-0.0024638333775971353
880.0,0.20758139379251137,0.027432251284412967,1.0348014199554385,0.08526744870829048,0.012315874871738488,-0.00787988385684503
900.0,0.14480818415496075,0.0034339521539705825,1.020070897461385,-0.11075710508952397,-0.000995570890927205,0.011674257470929572
920.0,0.11754122663704306,0.032836167055830846,1.007272283851994,-0.14558228147325794,-0.004373577386299261,-0.007969559292005216
940.0,0.13061640500267188,0.024845887159266392,0.9869371580646052,-0.21941371807564752,-0.02219107552795444,-0.01037759715017749
960.0,-0.008036230081163095,-0.026517173606305813,1.0003891720885745,-0.18930903890035902,-0.0005221436824619754,-0.005264804644935304
980.0,-0.003015441479193616,0.054133702385880514,0.9869637661923258,-0.03738788186812991,-0.01225022136498851,-0.00451952539111247
1000.0,-0.042863562972959283,-0.0055867343596601605,0.983721394020506,0.03465619757599882,-0.008279674354204701,-0.0020425824888334583
1020.0,-0.026881924549614408,0.01114825208553082,1.0025699418450795,0.14756338125098448,-0.002849037155236923,0.006314856378749768
1040.0,-0.0017140383453987888,0.002035723891020343,1.0204221439359518,0.23400887132596648,-0.00754331266715791,-0.005479751696834041
1060.0,0.02098121434005296,-0.03238919733000409,0.9850770229607653,0.16224426670473896,-0.010364604725709766,-0.008728480984635283
1080.0,0.05691735377073166,-0.02832705134681105,1.0102041663346444,0.08779046888846745,0.008595978260650452,-0.0016650028697191303
1100.0,-0.042361845090767875,0.04497015481807872,1.0306708260595088,-0.08805592194113414,-0.023053914556562232,-0.006600999667513394
1120.0,0.07477097139575126,-0.012849544964912219,1.0108328432303766,-0.15998543302640483,0.011521246665944705,-0.02096243863304989
1140.0,0.07465979443634724,0.016335009873098227,0.9817883944713824,-0.2087124232138407,0.012090248967259727,-0.0020719311672766244
1160.0,0.002968751040606435,-0.004527020413269488,1.037658752511366,-0.145184241766522,-0.008056637251837433,-0.005734886070305482
1180.0,-0.02885100975957568,-0.023894836104120964,0.9752084304163503,-0.02836292770524366,-0.004896344417178207,-0.0012856901179911008
1200.0,0.08160270046013775,-0.014358836901940833,1.012359000045578,0.09722236116045921,-0.010261928442984495,0.005376161866460136
1220.0,0.04723637969527331,0.022310243324560438,1.018396312909299,0.13688998123519724,0.0003459483774357274,-0.017465096575546093
1240.0,0.09482707498581067,0.02336022633116747,0.9901014103872586,0.23070992338979848,-0.00489954976714661,0.008921496439938894
1260.0,-0.010156923394146004,0.013185300014178726,0.9894803240209274,0.1251924251414519,0.0035305481869266015,-0.0005853075012602649
1280.0,-0.055983511138031065,0.0011694859093025463,1.026203067323778,0.07284000260176234,-0.011188735090242461,-0.0013336942816459475
1300.0,0.024424830199259815,-0.039505411722860796,1.0348996421138952,-0.06863779886502572,0.004663395974458543,-0.015148529968935709
1320.0,-0.020979772630630687,-0.0019262915317237643,0.9837743173629931,-0.16764052846215605,0.0036368299678931045,0.01680659295816989
1340.0,0.03672118126127986,0.0062282728039852586,0.9930045941079517,-0.20567257376734002,0.016164809091464463,0.012592797910752677
1360.0,0.07179996355160344,-0.016388037400306314,1.0264257166552815,-0.16214044528058813,0.008903825648415558,-0.003742031467070456
1380.0,0.07356241519720944,-0.03528132084126827,1.0265157830520402,-0.05260839047239866,0.017783402375739787,0.007471084840130544
1400.0,0.019138568520087006,-0.001016802980544679,1.0017096695500902,0.09667531549399928,-0.002987174994292415,0.011620030127988509
1420.0,0.08304304191153235,0.016549539656638218,1.0126254832087895,0.17358488403148326,0.00391095827755444,0.01678044831836526
1440.0,-0.010363427763161648,-0.005154028048472707,1.0162760336543792,0.16686986585973562,-0.009259969183088027,-0.007953212974184595
1460.0,-0.04564962092697421,-0.0004984636266575452,0.980096447415582,0.13975561848468698,-0.006217582749849098,-0.012624593578308153
1480.0,-0.027323373181467842,0.036866353792939455,1.0002963712999333,-0.0037743908459015596,-0.004922637260449934,0.006008781679101804
1500.0,0.002619854009170427,0.02979491999017257,1.003385393814292,-0.1141968312289755,0.00983041677084029,0.006152433497880391
1520.0,-0.11189672363855718,-0.048937793212425945,1.0250021545793884,-0.18340515875746166,0.010159989122556352,-0.014244872188765969
1540.0,-0.0029346721257266974,0.006018202922588223,1.0152704199219897,-0.18266137406582408,8.518321207743382e-05,-0.001923736934568966
1560.0,-0.03386882961014216,-0.020001557254623374,1.006530443960673,-0.13642552625200807,0.0055752382534066105,0.015372105444193195
1580.0,0.05181584054247575,-0.010030639237351471,0.9982413947863973,-0.02006661702781741,-0.012858391772414884,0.006930854248854217
1600.0,-0.09025256928466897,-0.02083406488807739,1.0246944745731128,0.11730214619256168,-0.011068221106462906,-0.017396508753562637
1620.0,0.03732067246435963,-0.006373880631603549,1.0042177261886307,0.16294752843095145,0.0091154093333713,0.003275022229642895
1640.0,-0.05058812523911601,0.0021733523737190426,0.9944014266881371,0.20286852413642847,0.0027872090173401147,-0.017258447466317096
1660.0,0.10225264900671371,-0.007652459917377566,0.9945289154818485,0.131032877540188,-0.02121848004096627,0.0052583418962059226
1680.0,-0.0180789303151083,-0.01543451277782455,0.9897613090165521,0.016533496203611726,0.006794597619716333,-0.015247746872118977
1700.0,-0.058403825997706584,-0.0031975682028815688,1.003314952307955,-0.10120170447839875,0.0031471483994790907,-0.0006295078013939763
1720.0,0.013518620392939197,-0.025131856023876853,0.9872022878688184,-0.20385489886453906,0.005706952318742591,-0.00963981479513
1740.0,0.033223062131810796,0.011565357444574003,1.0450116140707157,-0.19110023105659724,0.001669337507848998,-0.011784942482232693
1760.0,0.03596304626895452,0.013343821140053279,1.011253508501952,-0.15466993897207923,0.00710022447103924,0.007475533735264499
1780.0,-0.07069682638085655,0.008405216294786445,0.986565104853658,-0.03966755710567704,-0.0073592295891119295,-0.013820116978719868
1800.0,0.02495276086835538,0.0028696279625185397,1.0188816013999349,0.11767791340681956,0.009822801833414375,0.006922499636879088
1820.0,0.00910258853589288,-0.018069371134821596,1.012713019097878,0.20533967932307187,-0.0031584120679692463,0.009475862252285154
1840.0,0.11739347453144489,0.029952278667026776,0.9520544306102738,0.17977063309869631,-0.007131003200326763,0.01493636514706262
1860.0,0.0173845444355051,-0.009825853661085621,1.0562118137643355,0.1352788229373319,-0.008282099141619401,0.003439287921527792
1880.0,-0.014754646775607734,-0.013853665457291732,1.0077478944585947,-0.01872126480474982,-0.009835607467857853,-0.0007132837830857595
1900.0,0.03998075242391315,0.00991591039078491,0.9826374847241366,-0.13355276267001115,0.00030372006252607194,-0.0005572905205419065
1920.0,0.05208380325960228,0.03061224104179391,0.9887529550591045,-0.15618741008013248,-0.0035323482317330675,0.014108787041801461
1940.0,0.046324942973090394,-0.03748093995136194,0.9756588722982349,-0.17156194744664033,0.0013238169023808007,-0.007693541301446382
1960.0,0.02357230662491691,0.027119544102703147,0.9487588724717373,-0.13049387770872325,0.005149108941671386,0.017246987624886023
1980.0,-0.006321961191034016,-0.009380914142304405,0.9979536334440255,-0.00043711177904908935,0.0025520324504055393,0.008344616484941452
