timestamp,ax,ay,az,gx,gy,gz
0.0,-0.05305213946227791,-0.0052980059236488975,0.9785187891739903,-0.0006472140020313056,-0.008887885257564584,0.0006948798575920914
20.0,-0.00573933439943669,-0.007840396031506068,1.0088521680380491,0.10221403469883925,-0.002440838328735662,-0.0002426304741071143
40.0,0.04203648700342633,-0.01562075133763194,1.0065429153697825,0.15168809751965534,-0.0006509565536186181,0.005763483578295889
60.0,-0.07586042128511591,0.020390529037524835,0.960426184464597,0.1619363295857363,0.0008874039843272238,0.006843001054080053
80.0,-0.036385296349690156,0.031222303344442138,1.0013806700913759,0.12255624840986802,-0.0052913160541790275,-0.009646823558566078
100.0,-0.002160593409517089,-0.02333935510701016,1.0025171043609977,0.012064391056686205,0.010900052761697214,0.013594528598595439
120.0,0.03716787013684999,-6.9313376580879754e-06,0.9917302186144727,-0.10380860356795935,0.006465567697829247,0.007274946628639692
140.0,0.02582302438349083,-0.029983310303581066,1.0135826522874145,-0.19213257382379278,0.013480127155289569,-0.008924380565081194
160.0,-0.07762634811314417,0.014130697072539966,1.0142347026598166,-0.1979680632301314,-0.018711064213020448,-0.006473939348801534
180.0,-0.10710119348749998,0.01430113165412468,1.0310059627562531,-0.1175886045151463,0.008596765804218233,-0.005725694278766389
200.0,-0.04781050164700347,0.004327616377309584,0.9999159791314195,0.01982965097476092,-0.006892942846845458,-0.007366303342397275
220.0,-0.08783771250305827,-0.006329550875784124,0.9927519368036732,0.11483516160781237,0.00985374525296992,0.009104254739920254
240.0,-0.0398629933507412,-0.010767271746320684,0.9798919084457036,0.2047445790769363,0.011907994714205533,-0.012536100404720339
260.0,-0.1373607516531125,-0.016113683845987818,1.0196343737488451,0.17929188385877004,-0.0028020586045972456,0.011693075179968301
280.0,-0.08821318709231338,0.0016453153181036934,1.0165192613292098,0.09200153073652265,0.007683560763804648,0.009809645325165685
300.0,-0.21665521979539404,0.003250606312071298,1.0157920202667574,-0.015199411201075451,0.020389626836936854,0.0018477053653952805
320.0,-0.22162203718722417,-0.010901463509156757,0.9913670366437988,-0.14109523703159244,0.011164742606971504,0.0077402385432322465
340.0,-0.287563213190502,0.01109338857844716,0.9778259978613069,-0.1924421997608581,-0.005064125246292869,0.015069290268590461
360.0,-0.43530049370279295,0.01197579022918024,1.0403276948893585,-0.18322625856623687,0.0036711097371353108,-0.01714811939047353
380.0,-0.3754478387380258,-0.01933945467185746,1.0510660965001504,-0.09368713906828116,0.01413191773303028,-0.0044887718138398565
400.0,-0.53720371447381,-0.0022562393226035603,1.0122863324880855,-0.024759165225809607,-0.002925493819639677,0.004761915036062969
420.0,-0.6577671305914145,-0.03221985031942778,0.9591502434845802,0.1639141879469317,-0.011996483809856516,0.0012926899939724676
440.0,-0.8518549779943727,-0.0348147494929678,1.0072821122779794,0.2106684157827656,-0.0016140847459776343,-0.014171806859215947
460.0,-0.9648635845602508,0.006803943419798071,0.9956267990890633,0.18484536610833396,0.001711026978106358,0.010938898910259787
480.0,-1.069344458228588,-0.014941943417041303,1.0240734640581937,0.10918530999121716,-0.00029506110074059387,-0.013203028022007011
500.0,-1.1337841739805201,-0.00712832933022105,0.9831885901991029,-0.057526813225682746,0.003075324890321119,0.0002009361259465044
520.0,-1.251241926308855,0.026618804304966628,1.0283792748740697,-0.13806390930026238,-0.0052847504528441905,-0.013365613678954754
540.0,-1.3269108752971548,-0.0011693907844172494,0.9745684765409365,-0.17442722787998577,0.007796947064660738,0.014020574108209824
560.0,-1.4164416326034428,0.019298274542427853,1.0080613228697222,-0.18126515580215943,0.0011977692862242596,0.016963233463782517
580.0,-1.5614690226118586,0.024468945638834286,0.9840062978894631,-0.0946279633492949,-0.007415550322857741,0.019297700544085455
600.0,-1.4722456773199757,-0.041063709505448714,1.009718023448084,0.07358132540529552,-0.00647245522589879,0.006605296474793097
620.0,-1.551949962176829,0.01811042670993264,1.0233626474363646,0.16047262637368767,0.011953932586822216,-0.00722629882605853
640.0,-1.3549835535461587,-0.002208706278149117,1.0546724676153907,0.20501533673859246,-0.014924803015549026,-0.008728959147865036
660.0,-1.3104275351553292,0.013178232852436,1.0056345404988674,0.1911732036469791,-0.01379633074733366,0.013115193060387846
680.0,-1.2326674729607598,-0.029207436181965547,0.9974978125993215,0.06812640806618753,0.010541016587171347,-0.0011815936787350797
700.0,-1.1784055874566797,-0.005572086935480407,0.9883108212530728,-0.08661426413081325,-0.008765931935858567,-0.011964907376630647
720.0,-0.9583945729049658,0.02175295765377641,1.0071911205251833,-0.1417437710286685,-0.01048823037418182,-0.0021889220563949263
740.0,-0.8642696380188905,-0.009781587042834964,1.0249330967270383,-0.1551337499298548,-0.006040708297265234,-0.014101880527780953
760.0,-0.7508657647519141,0.020217795623702097,0.9952844435259782,-0.20333563383274644,0.004121776773013563,0.004873652881135834
780.0,-0.6097613859982105,0.001928168285937663,0.995615622507372,-0.08553986112490033,-0.002061256437869323,0.0012596913264000514
800.0,-0.5207993369812673,-0.007179192960318931,1.016620118115236,0.049939213895132,-0.012044905923239563,0.001547724455042903
820.0,-0.3525317291306609,-0.017143977342331754,1.0292540348628554,0.16478176549867313,-0.004206464955015172,0.008769395022784088
840.0,-0.19769169468184464,0.021429491677892133,0.9797004782087864,0.2332366368239164,-0.009279852327014596,0.009494452812637298
860.0,-0.35173034333672454,-0.013078102328785235,0.9956942218251575,0.1685429038899524,0.007842166179045058,-0.0007407974996992131
880.0,-0.15635324915732454,-0.036168975271564804,0.9872911486704627,0.07074062039963008,-0.001055009219955053,0.0043233449312650805
900.0,-0.13369111838581382,0.0027695577614612167,0.980453810191991,-0.03770533436517379,0.0013278119892395255,0.00902889023248263
920.0,-0.17495207101809535,-0.001814147538100265,1.0028001547717336,-0.17953717785197304,-0.01509775988381484,-0.0071016868870461
940.0,-0.055351958605086245,0.02062947367937854,1.0215131351024156,-0.19467194947670738,0.009295206836910198,0.007203008305212131
960.0,-0.07754400023488943,-0.007877768687982175,0.9763473836959323,-0.17748118780874483,0.004610369513913333,0.02017450352738491
980.0,-0.08185841428543912,0.02558304600398472,1.0053930094148815,-0.05772391037464014,-0.0021847694727647063,0.0030633124268380023
1000.0,0.015633135670076848,-0.00465348087208229,1.0138054125053266,0.05213775365519642,0.015736616501651507,0.004097705103684019
1020.0,-0.11378805739936783,-0.0013882504463103007,1.025384664066392,0.14956311721139806,-0.006475095442663663,-0.021554204118146566
1040.0,0.055130363804606425,-0.015756301966522047,0.9935750148741589,0.22682565784303022,0.014990962750848982,-0.006708053869985124
1060.0,0.10797596964523748,0.025804664993450892,1.0100035291810732,0.14821501360423772,0.0014514160036796446,0.010879078424218376
1080.0,0.007505122015369374,-0.018047106046253293,0.9871406152803641,0.07032586977718663,-0.004658262835301793,0.0035516259656349224
1100.0,-0.08935834999194144,0.0033158042863606937,0.9874322302024663,-0.06907832008923077,-0.00018579249726736487,-0.013014359514766904
1120.0,0.0007763045035357758,0.03089678963204171,0.9731883704837424,-0.1656243240513985,-0.005517148068567357,-0.00839832034224691
1140.0,-0.05145430958471301,-0.030276524245660772,0.9968706608923824,-0.21497554026678123,0.0013861164032764484,-0.024588741322835967
1160.0,0.01960066708091157,0.018193549023517334,0.9963041680597757,-0.13070219961362822,0.012626073991252307,0.014919228166109657
1180.0,-0.04953043091051449,0.006835672766162401,0.9872639920287742,-0.03670594823295288,0.014674560641882013,0.005158263762431898
1200.0,-0.10607221250506285,-0.01318091039620347,0.985370902433006,0.05162200033028318,-0.003912755573782311,-0.020936725522590644
1220.0,-0.047934199602330536,-0.0033323534287857033,1.0247445491583695,0.13883534872475858,-0.005912574668633236,0.013466796059507041
1240.0,0.12122722110499794,-0.010248448599272686,0.9899534346635586,0.21241140355527066,-0.005547159422340942,0.007094768689764623
1260.0,-0.05082768619830054,0.008523760309994074,0.9522688691523641,0.16023994050087992,0.017691271646074952,0.009525679220129491
1280.0,0.007557974661010173,-0.004333112174138179,0.9776880134142055,0.020346050962391213,-0.0003729972031925163,0.008517236179564923
1300.0,0.030682273741008355,0.009532835028059398,1.04365094291175,-0.07267111358441797,-0.010417480164917349,0.011542637136950551
1320.0,-0.021296124658812306,0.01431345887534663,0.9884606557410923,-0.17257050560494505,0.008849064797364123,0.011497057244131288
1340.0,-0.06132939734546769,0.010793277499338545,1.0371276641689298,-0.2139441155899772,0.0029820387565887177,0.019897872367499344
1360.0,0.1121801691769761,0.00861480307668749,0.9700574816935195,-0.1470099242647599,-0.006747440890991128,0.00011324709769737311
1380.0,-0.0501468987175461,0.005993347495465705,0.9905377441321738,-0.04497808861385805,0.0022197447524270235,0.005634916484493995
1400.0,-0.014830868750226617,-0.008619472988380951,1.0301954049544946,0.07948951360229355,0.0021342838879429447,-0.003585197533845187
1420.0,0.04400609527858595,0.017823292754682148,0.9588378986467875,0.17403942563409158,0.02012206395926659,-0.009544352511912641
1440.0,0.04582230526431388,0.05962890955757019,1.0028974966191246,0.2181953475228529,-0.003167103305956318,0.02204109634238219
1460.0,-0.11051030570599873,-0.004081937843237673,1.0240516784386553,0.14074838094167888,-0.019499299576333774,0.0013250612478393428
1480.0,-0.0393679352947647,0.023539879037976,0.9994179797414502,0.01720713766724523,-0.0002859418539292417,0.010308345497492979
1500.0,-0.03296655874881423,-0.02822862123044236,1.0357379051170585,-0.11599886903371498,0.010199386414328826,0.0022897867462370455
1520.0,0.05981078873892035,-0.0026768750515573135,1.0232526479546211,-0.14926086481354245,0.017495910108929452,-0.01664557896458642
1540.0,-0.029313526511439494,0.008536924152659947,0.9568412231938515,-0.2390683297207032,-0.009418632383517539,-0.003891723338263996
1560.0,0.04023816525656985,0.017496954773310435,0.9996879581017225,-0.16302022600476243,-0.00041403897002680084,-0.001793306574203535
1580.0,0.015333617847722528,0.016556734970713246,1.0151675405992127,0.014198734805227386,-0.00880679894256509,0.0028923527091824796
1600.0,0.04934088867346947,-0.011967952544140986,1.0151053617994699,0.07516572907471496,0.005087228917882864,-0.0006492580046231502
1620.0,0.05965109685741812,0.004048848051001349,1.0174205557281577,0.1847960307377641,0.010063160198335395,0.014415003110930576
1640.0,-0.007494693748521219,-0.0017537407176309331,1.0220319699089762,0.22093570712789454,0.0006679475056620295,-0.007201375805301828
1660.0,0.06954063170688629,-0.00434766193631015,0.9921094731275815,0.13612616564605376,-0.0013166425532128594,-0.011193739526939096
1680.0,-0.007882383806484707,0.013217158404800302,0.9987464325981126,0.024207836973966612,-0.003577107201220201,-0.009159849311859937
1700.0,0.04678574828992413,0.03673220156760964,1.0071914419841748,-0.11308018524987606,-0.007640404154020487,0.008848915774706255
1720.0,0.008825893757135514,0.006800873771380405,1.0267658664507775,-0.1658203119470929,0.0036167138658280747,0.019819426810771847
1740.0,0.03249485170192187,0.0033258207580246025,0.9895515684942674,-0.20617379001478225,0.00985905475472353,0.0006535657942343634
1760.0,0.07122360726721992,0.005452147274015511,0.9950663501159058,-0.10878415589565893,-0.0034237823542784835,0.015057682294602715
1780.0,0.014652337160835615,-0.00598309513002551,0.987039813486096,-0.0213978204144329,-0.0053687522106664175,-0.006090783753073204
1800.0,-0.027647507511900902,-0.0440051206099026,0.9847856914883305,0.09584899394349569,0.020118648214511557,-0.002346692687284057
1820.0,0.008519358950905411,-0.01075491109344166,1.014813351559692,0.1994246181869094,0.00217914076447807,0.005853891554946267
1840.0,-0.012564648406577365,-0.02595637031352604,1.0260968946200193,0.2158955887285552,-0.012841244457927142,0.0015484880927641533
1860.0,-0.08720833799570178,-0.01795446139793246,1.0103635980044403,0.11037213259764121,0.001289360766422668,-0.0006651823938041263
1880.0,-0.02255114542285632,0.035032005838400514,1.0068439113789363,0.00797527606711425,0.007968378471787751,-0.0021026690629760867
1900.0,-0.02262659780827035,0.024018595304824534,0.9937083387675132,-0.12001186602422881,0.001770005199710163,-0.007708547433985461
1920.0,-0.018346810409996098,-0.027129806692936884,1.0206663106221479,-0.17792894247751667,-0.011201509797206338,0.011154962879609301
1940.0,0.00706866864762586,0.00754672244593814,0.9631837530018168,-0.17939574862254873,0.017869171406214805,-0.016351372923255576
1960.0,0.029833521960783406,-0.03132420187071071,1.0234225567924127,-0.15844171053234019,0.021312741954544256,-0.014989222613604539
1980.0,-0.023573722407476284,-0.0015686041846123338,0.9686728221699421,-0.00846091541037426,-0.00464123930467908,0.008886450898187338
