timestamp,ax,ay,az,gx,gy,gz
0.0,-0.010653060492211682,-0.009085226678001745,1.015841452907606,0.028755168571833637,0.008972631777622055,-0.013078279528646753
20.0,0.11182927927341216,0.039811729952720996,0.9877696732622416,0.13378858662233606,0.002282347505874568,0.007236832735378154
40.0,-0.05165725117276074,-0.050632187805495034,0.9964843230006875,0.19590707131067014,-0.008784849708458236,0.0042604491689578325
60.0,-0.035210304072059925,0.003514222659206863,1.021108382374465,0.19721050313868546,-0.003960160379693,0.0015032167413810374
80.0,-0.024347799998421658,-0.005632319835324149,1.0207838073348774,0.11314641551501291,-0.006490852038229344,0.013576470600589606
100.0,0.07000891233408672,-0.016809275236368666,1.0442969803473294,0.002032681811417981,-0.0073430684165072015,8.920325358694325e-05
120.0,0.00785853842855454,0.024433325819548976,0.9628975150528731,-0.12585348231966018,0.005164030488729201,-0.015414721725833138
140.0,0.00324778078699041,-0.01088332842091076,1.0050883858287414,-0.14426125603287787,-0.006173782877446909,0.011359166816566868
160.0,0.007928624046342463,0.0026736482025515435,1.0278641428047588,-0.19570377885026552,-0.00862028774997876,0.001805505833186721
180.0,0.026602738450423564,-0.01829313942398235,1.0072253569114424,-0.12387933042474265,0.005491307551140996,-0.0050078142151603975
200.0,0.12645251189842038,-0.010959636241320543,1.0149068437779396,0.0006801638096755099,0.008270909156736648,0.00011878816793792446
220.0,0.0943898270025336,-0.01310000704340793,1.0048846738062442,0.13716439552375942,-0.001748673755195571,-0.005556231088030327
240.0,-0.014750296369644263,-0.023295352417720863,0.995373888169563,0.18293602908558473,-5.996563713734907e-05,-0.0019717065085049774
260.0,0.17468691269727005,-0.018333984364983392,1.0188592496924362,0.19203259887414448,-0.008536916645416177,-0.0020200120214811453
280.0,0.10130593982929434,-0.005990660739210443,1.0138281259448692,0.07751797472395985,0.00794035874430797,0.0013659029279271299
300.0,0.17320424289529682,0.015392492632311652,1.0054458964292698,0.01230876710330242,-0.01886778125096798,0.021188735979462473
320.0,0.3016902302872394,-0.010229327454259682,1.0364203547292874,-0.11647255832820294,0.013883385562342625,0.0014755570181706355
340.0,0.3760335864752117,-0.005433544687531351,1.0212128801261482,-0.22949293538152718,0.008026211078548048,-0.012189687050501599
360.0,0.317505932320766,-0.01372588201886788,0.9922296878648023,-0.21183971674952648,0.01150105985474696,0.006789161007975417
380.0,0.5060666167320012,0.011967308877339836,1.0393081014835028,-0.10142137028584035,-0.008351534014602058,0.005197883594969712
400.0,0.5577272354971968,0.027712603951876136,0.993092431001918,-0.005433845973639818,-0.028799472719887954,-0.0004865533844812836
420.0,0.6800208747348233,-0.05219595553272801,1.012457979915624,0.11900408391772123,0.004858199362999588,-0.01487483891210273
440.0,0.8580321271850859,0.003748891882908736,1.016346417837164,0.19497187321213677,-0.01712409540340843,-0.0029243950317688065
460.0,0.9438866387720284,-0.020255655559021396,0.9653806019890412,0.17286995606185399,-0.013314454364741,0.0020015314820148126
480.0,1.0770215357571378,-0.006684485255189208,0.9994766962957602,0.07349190982662943,-0.01215070730507406,0.0058487192797475615
500.0,1.184836172646097,-0.009226316264999191,1.008761692941744,-0.02754526560067085,0.0034140914897482022,-0.012492425833288287
520.0,1.313455063835912,-0.0056382391668367785,0.993058742745139,-0.15171863988432446,-0.01709259001389111,-0.0027035948070702736
540.0,1.3748968999584612,0.00021415778510987628,1.0012574678689772,-0.19240490698860793,-0.0028767026699400722,0.00018870806783200477
560.0,1.4821484447955888,-0.025227909999081963,0.9724320130046159,-0.19879259044540326,0.0022573245400045747,-0.006332208633666281
580.0,1.4695907613578896,-0.011502007500928451,1.0102246260128669,-0.07345483189235555,0.007770811474117277,-0.0019281289185824205
600.0,1.4482629371372437,0.004752671991576988,0.9739949852490906,0.03116998981280555,0.0072492459208464985,-0.011155944669078028
620.0,1.5038005209515164,-0.008320475571281438,1.0015169652398614,0.16755490734562664,0.004744820629117162,-0.007409115753908244
640.0,1.433698652572986,-0.0030614094978529825,1.0190091537418942,0.17818084373750412,0.01127284591595329,-0.0058944689825074035
660.0,1.3780357593340256,0.025381179227383945,1.0354202838930868,0.18828774845537916,-0.004018515032372294,-0.012425107886727845
680.0,1.3258387724795724,0.0013465615102073328,1.0312114214131145,0.09290927159222633,0.002429226353019014,0.004368018174555386
700.0,1.08187628146657,-0.005787885077933143,0.9910179055088094,-0.02499493685043905,-0.017646604789197932,-0.011585514736186131
720.0,0.8810459363858225,-0.006182697644428127,1.003462578564887,-0.16010046439532782,-0.01026726652382246,0.01112902384392151
740.0,0.7389272672471039,0.002363573315161447,1.0048041992008545,-0.1964143465551641,-0.0007395264998674636,-0.003508169898427398
760.0,0.7927803375018203,0.01270317193353539,0.9872844332646351,-0.18715665654804348,0.011227273362638462,0.012872580209290801
780.0,0.5832131613956806,-0.010825920159137829,0.990757349051009,-0.06848660363321099,-0.019016803979525647,-0.0033815096286614406
800.0,0.4156555048280781,-0.0008744441164990342,1.0122165835230221,0.035867551977262144,-0.0039382221812822886,0.0007811189455222677
820.0,0.37291373653093146,-0.028808166667402952,1.0173353948244408,0.1524290959750673,-0.0046631047579166855,-0.0057049554599237365
840.0,0.2957791409884372,0.011158018281953406,1.0160904935861936,0.17916457082823817,-0.005926853182130109,0.007105440096677952
860.0,0.27743315677541097,0.012730600699557504,0.9988903754749453,0.18314085576937358,-0.012968785476708395,0.013073045004391054
880.0,0.20748254588974097,-4.917131158341893e-05,0.9714046861814667,0.05371504701589522,0.0024335814044780598,0.00779224484400728
900.0,0.10560002679993763,-0.009555778691540574,1.0096844270602732,-0.06041380690106942,-0.005831207304609045,-0.015369379995056994
920.0,0.05151825581252782,0.0007010973645048634,1.0199606286447467,-0.15325618238857336,0.001224393094888209,-0.008281245041098931
940.0,0.13679636530181583,-0.004022044674411758,0.9487887066660072,-0.17173377115021987,-0.00011920326022435825,0.0017275606322811102
960.0,-0.019373504008279217,0.02140578530069607,0.9800237807581497,-0.14001556503634274,0.0057193106972394415,-0.014919629014021702
980.0,-0.08474654102253265,0.007091407402106021,0.9820729815066154,-0.07289241101037296,0.012545540644411006,-0.009801234952405587
1000.0,0.029945072310591424,0.010624745817067245,0.98878118212948,0.07417892028080562,0.013130560480884465,0.002928517478273935
1020.0,0.020239586391465874,0.020228041756623225,0.9823877086433424,0.13360530333364298,0.010267361542567877,0.005169096643881159
1040.0,0.007051396809082489,-0.003063171192784464,0.9971781440115466,0.21016935155306204,-0.03215088551699597,0.0019464335195227035
1060.0,-0.0038209385955062947,0.011809848670126653,0.9832843128433505,0.16715211101621585,0.0056784324319251655,0.009967944057228456
1080.0,0.01836662679530687,0.012693137910364843,1.030518001008093,0.04999570420644175,0.0028875890073013213,0.0013699213757070497
1100.0,-0.007811899504832097,-0.015704542768662212,1.0140377008347818,-0.08762620525905056,0.002791564335049062,0.0059182584517649675
1120.0,0.0019297222424313949,-0.00799425643813927,1.0451320148933003,-0.18305791253413595,0.0009674953244501566,0.011377165257567703
1140.0,-0.05043904079744876,-0.02220766929742857,0.9925357575622203,-0.21783861293628135,-0.002988739585020105,-1.0635145932529442e-05
1160.0,0.06414377061228141,0.027153312472364632,0.9861760044300361,-0.14492740397600945,-0.010985448376272227,0.004570050737062453
1180.0,-0.032980511920856256,-0.001319280492731396,1.003149355356171,-0.048768700466378996,0.004712216586500893,-0.020588072878250267
1200.0,0.029758842973893283,-0.028541575493802315,1.0124880564272443,0.0879566429115349,0.018636386849546313,-0.0006426101394221387
1220.0,-0.05782510244239015,-0.015760791970414082,0.9862662930409695,0.14855745038667856,0.005309088848175806,0.0014377665401562527
1240.0,-0.048143466732825005,0.004033661119665402,1.001368034562009,0.2060282483392072,-0.011744594169727758,-0.008690176044504594
1260.0,0.001238850953964952,-0.012025669582441743,1.0119915315280943,0.16767227624129105,-0.0009281903920915618,0.0017488067576979217
1280.0,0.024674620003010683,-0.007185069738546328,0.9906424748839883,0.05416085925281251,0.011009338656616753,-0.010205480457954646
1300.0,-0.12194269246262852,-0.011329742873440221,1.0134166989029838,-0.09167449692413632,0.0007930422950556765,0.022672746604706258
1320.0,-0.04637396546166801,-0.016183554230654526,1.0245640700490009,-0.18182665771804396,-0.007048875233228943,-0.008200590979328496
1340.0,-0.09739357374345858,0.03399499252695767,1.0191587797592623,-0.20303151757202764,0.024013921194537834,0.006558903050235404
1360.0,-0.031742904813049276,0.0013645181216767786,0.9962935412330769,-0.16019308465870805,-0.007837740885937623,-0.005383926409504364
1380.0,0.06087197532439778,0.029158250093578038,1.0036104595319193,-0.055892454192328675,-0.004135850843439812,-0.005441300228966813
1400.0,0.08048530149376723,-0.014849026953637325,1.021010621175653,0.10244270532446731,-0.0033198963375913066,-0.013828396410888436
1420.0,-0.0005513798846954589,0.001235926468619881,0.9844686982158144,0.19017164974156,-0.0034927750653435123,0.006391564609472693
1440.0,-0.040971071181974135,0.010444044500028074,0.9503794989765025,0.18869355744054403,-0.0005238402623134799,-0.007871994422226249
1460.0,0.002815342073084318,0.00035205607635523394,0.989662443281963,0.17102638132523967,-0.010551452401678188,-0.013426708108319571
1480.0,0.05677307991154486,0.0030168046754763555,0.9751529213759621,0.05293530103123333,0.0001018394757664559,-0.010331448041226906
1500.0,0.020523678876237104,0.02030407962166679,1.0223798079193693,-0.041745125449748295,0.0032869151506956947,0.010977007451889502
1520.0,0.06677191641907837,-0.045108965509993215,0.9790388935285395,-0.20693251643271363,0.011095017765553274,-0.0027678100059084286
1540.0,-0.020388684820017305,-0.02796206764384108,0.987785556300187,-0.17690357596469136,0.0030113415043056756,-0.0023008110183887075
1560.0,0.06584332160201602,-0.017469844542285753,1.0039872075281397,-0.148150253901701,0.006009816534712231,-0.0034050104751415216
1580.0,-0.05421018502697546,0.011705883988706279,1.00441914872673,-0.014041136822156294,-0.0022452044406032815,0.0062669795270095495
1600.0,-0.10157427802948282,-0.010483174762178226,1.0037910806505537,0.1218347774346038,0.007034291399657044,0.0035541212481668373
1620.0,0.06791711797639052,0.011357988261150498,0.9872338541198634,0.20120605764306904,0.013915387141971715,-0.01642061925888421
1640.0,0.011463338165900087,-0.01086802203330012,0.9924602979078228,0.15658155104365043,0.009392549595578477,0.006956127414423114
1660.0,-0.010599854027317133,0.006607878696060325,1.0315436189367817,0.11393273234032726,0.0063352083319772505,-0.011653943998661336
1680.0,-0.042137188719711186,-0.01660689209259408,0.9795555063614263,0.020019020210349008,-0.0025235635338819117,0.0019877970129717417
1700.0,0.009546598187106563,0.017206991364944024,1.0176883209188814,-0.08401729544475009,-0.0035157506386726714,-0.0006324924747198981
1720.0,-0.014767713440414387,0.02108430562624773,1.0530781879543765,-0.18314532440240014,-0.002293623171161225,-0.0020545597045521316
1740.0,0.021513285357505317,0.014469871430286857,0.9980921524373756,-0.14298639530500085,0.005765239704259254,0.016570220587813135
1760.0,0.07165230937352052,-0.044480368016414494,0.9774686106259327,-0.13672876427128502,0.010060115782787534,0.00796742105554524
1780.0,0.06745001328720401,0.016201945631548323,1.0053670563799555,-0.03145790814655616,0.00020881388312368618,-0.0029823507584937716
1800.0,0.03631581740469844,-0.006107609819677517,0.9656751228188014,0.08696308498967242,-0.0020728283746687475,-0.0033372043936216018
1820.0,0.018511590750084628,0.023185302091984935,0.9790325439885736,0.1680968228099431,-0.008895650603653292,-0.0033197196876017247
1840.0,-0.04484225610729692,-0.006709642839765592,0.9860112104452474,0.17489325326417698,-0.014666892750682217,0.007189766770363558
1860.0,0.08044930665856859,0.0031910817891888836,1.0077254342422775,0.1417046949203958,-0.010957892335618951,0.007588204093895279
1880.0,0.09364616870483129,-0.01323700657737182,0.9695864565130009,-0.01619324367755004,-0.00907729606740324,-0.006537907170816124
1900.0,0.07808981589521999,0.03237610881063262,1.0253935566541599,-0.08946818365581286,-0.015434603573945995,-0.00628663889504311
1920.0,-0.014738986542529413,-0.0009361978896447597,1.0324366854237734,-0.16056551099251554,-0.005797168953148175,-0.026265428013205975
1940.0,-0.027602720920358082,-0.002532220537348679,1.0113388191194164,-0.1772200070778211,-0.006603711055377347,0.00022488608122828518
1960.0,0.041652431901982756,0.008758073032193753,1.0214893598540207,-0.10876742906614113,0.0007683997786435346,0.00931136393002098
1980.0,-0.015764965749539228,0.0026275401579307074,0.9830848721708251,-0.005465756903618215,-0.007229542380745912,-0.009266649848939988
