timestamp,ax,ay,az,gx,gy,gz
0.0,0.009633078905626622,-0.04151847674284507,1.0023061700530231,0.00189156326910353,-0.006300630046530012,-0.008746171343099789
20.0,-0.01217941910477497,0.0004060749445426127,0.98956809038486,0.1517809095622526,-0.0011168828680037143,0.021078609730475248
40.0,0.09544997125938325,0.008514542414218248,1.0236980087416527,0.20442418016050948,-0.007159661424791595,-0.008694096069542698
60.0,0.021613231066249405,-0.00645556588681087,1.0152777791949663,0.17266602692435956,-0.025299952828384195,-0.004568173491000022
80.0,-0.05545780374858187,0.04397450149910963,0.9974949903619861,0.12436096616723108,0.016482424760512388,-0.003813685056826352
100.0,-0.020545966693098387,0.015200100840143284,0.9922553958554854,-0.007915791002024828,0.024824866181953325,-0.004228779981801981
120.0,-0.051701668951078965,-0.020667408177548148,0.9944230477347421,-0.13470865281408342,0.00592102360511107,-0.005499575217347058
140.0,-0.0672504849226932,-0.007453196013813785,1.0019675272964215,-0.18414491520825332,0.0027241650270580305,0.00044211758326597963
160.0,-0.02915003888672993,-0.01874935248142468,0.9768160017918942,-0.18029036540849722,0.0034576678188373887,-0.008402021497004733
180.0,-0.04988207927943789,-0.015937795685141132,1.0284547893256653,-0.08287330063467985,0.001517458164358665,-0.0019246781823287619
200.0,0.026760626888150556,0.024550936138377565,0.9942587820141431,0.01339314331144771,0.015193474922406304,0.02245097529368919
220.0,-0.01774352616179751,-0.0013561059448961585,0.9594222348954041,0.13110594795460137,0.011046764495808308,-0.005533943314902703
240.0,-0.13274572626591885,-0.003055376667174205,0.9749157949882369,0.19463120787745264,-0.026871811955676183,0.011378399671272268
260.0,-0.046024463605060933,-0.025118990683334144,0.9791004799303459,0.2186987695105745,-0.014295056135437537,-0.01767571855590485
280.0,-0.13378130299611096,-0.008185500232369409,1.0202340070466187,0.11504476803470857,0.000419484160098028,-0.0222067958007105
300.0,-0.1744752995684098,0.012899000602845895,0.9930550661766044,-0.00831568957403013,-0.004292868715470738,0.009531614703055092
320.0,-0.22443066116660032,0.018419734500780275,0.9756068326646877,-0.13091409726943035,0.009403086473207282,0.00736100005860013
340.0,-0.2405478585053992,-0.017756114763395572,0.9934950945236964,-0.17907787935138186,9.979201169475389e-05,-0.007879646248305323
360.0,-0.38515985667044583,0.002492935811791971,1.0048980069425482,-0.20079351586884692,-0.00436992964529259,-0.0189794002548402
380.0,-0.47870100830452766,0.0031341881357423054,0.9994831105717478,-0.11439875346842715,0.004187401416100324,0.0025051450375463765
400.0,-0.5402134841962941,-0.03164514544528842,0.9973028686971677,-0.022264585643907216,0.005951691285645209,-0.018727440360394965
420.0,-0.6842316219469677,-0.0032562712678437813,1.0214767201401773,0.13656987061246945,-0.002008947831433935,0.030288886348117692
440.0,-0.8974386705147525,-0.009689409436714275,1.0111621548501146,0.206080652806634,0.004784875789912012,-0.002663215740243313
460.0,-0.859074277390919,0.007528229905350502,1.0227295560180774,0.20558865151789812,0.007506460901278818,-0.001040197757164
480.0,-1.080532958416572,0.023736075648484314,0.9957019821158263,0.09744087343841455,0.0009987654122956282,-0.025971095769692358
500.0,-1.2159338762492715,0.0020632066757919265,1.0056085450669672,-0.05210894255300817,-0.0004828723237141101,-0.020876834556491364
520.0,-1.2815504820895645,-0.0008959217214956948,0.9816040320087722,-0.11679643363459168,0.0010715506038957389,0.007874152940110839
540.0,-1.2975609797814907,-0.015701911011420728,1.0008646780960595,-0.1919691068407861,-0.01289504429606034,0.017276388775083664
560.0,-1.5278057716922606,0.0010545695975086732,1.014584504478528,-0.21605907569784624,0.018217873275303022,0.008332595001587544
580.0,-1.5474578914805543,-0.002538788118645603,1.0116797204146863,-0.08541265235816249,0.002850245906734833,-0.007113864625998949
600.0,-1.5314634981437072,-0.04143740250730654,1.0044775377944404,0.0357407100108709,0.002628294035530722,-0.00045412240721542826
620.0,-1.4673085690309342,-0.002593881235182274,0.9530378094301276,0.12747152799942757,-0.0005307828845041138,0.008719286488917845
640.0,-1.3375132730075352,-0.047769265106581846,0.9795472114624546,0.16234824474687432,-0.006666963701731622,0.003690671416123319
660.0,-1.3608696461786591,0.0023315685104059883,1.0223902683744708,0.1644364078130519,-0.005568878363495582,0.0015617170027819355
680.0,-1.2168445161295829,-0.030572451674321512,0.9778111986376063,0.08072134062174637,0.029528688707881123,-0.003093330241259085
700.0,-1.1978934243436847,-0.006967322306120174,0.9997830929846816,-0.05236531201109735,0.006046497496599114,-0.006313952537560778
720.0,-1.1037090349055665,-0.019651746028311896,0.9798453582400076,-0.13942810732052197,-0.016266336813681174,-0.014754214968061084
740.0,-0.9693089420071586,-0.0006317642639021966,1.0093097058286975,-0.22690256336621217,0.0027309668254356435,0.015203643830624836
760.0,-0.8249070705360104,-0.0009145163657715545,0.9721518361313959,-0.15034360386728313,-0.006216290193241656,-0.015668449931626142
780.0,-0.7199996519684069,0.010466668532011527,0.9917394627208234,-0.016616966736310683,0.0028001723609610107,-0.006114066388967447
800.0,-0.5408872487542512,0.0008358439109501393,0.9777452284934904,0.027384504128179207,-0.02222928399091267,0.004306357567634691
820.0,-0.3866810822439102,0.01890184476117409,0.98892588017823,0.17808905088271687,0.002093934609186128,0.0004831593444361579
840.0,-0.31471181577411056,0.0091200704343754,1.0051984637046045,0.22315895407487002,0.0026789686994353836,0.0018655721952836166
860.0,-0.28770163823229344,-0.015566479510120013,0.9934567516115194,0.16940100960166363,0.0027168981252108254,-0.003974631803380762
880.0,-0.11764906940921814,0.020786071036347775,1.017926983811234,0.05682428864186557,0.003970606943649347,-0.004068264877292809
900.0,-0.15911510268546675,0.0025906445175668193,1.0216045495971142,-0.07256586511354136,0.006709628714865444,-0.0017069050521528063
920.0,-0.04219149768310856,0.007865673585503555,0.9894467136046805,-0.13984621144800874,-0.001182992236736012,0.013399128507434972
940.0,0.016393328226089868,-0.001751776160313624,1.0056456200368271,-0.21234522280760665,-0.012636471830643188,-0.013594491143551553
960.0,-0.03488903197100885,0.018245518294871765,1.0105170182958563,-0.1308788468149779,-0.018117640123642784,-0.007314395075498992
980.0,0.028102510038385257,0.013250093684059088,0.98778620857609,-0.08941918675463059,0.0014908776406715924,0.016558923284917128
1000.0,-0.05668009447095489,0.003970125402706048,1.0405025066287668,0.06102786711485969,-0.01886551874049294,0.008888868255369277
1020.0,-0.09216827717084222,-0.003022577548937108,1.0581216810205907,0.1496836822200717,-0.009193050093842536,0.006488660722610691
1040.0,-0.039458176903466924,0.0021527214463045972,1.0044569736668418,0.17370835462221382,0.00612503893979137,-0.007031557343591606
1060.0,-0.10087089611123182,0.017612083898762218,0.9898310596525405,0.16682292430677695,-0.00046745378154344763,-4.411519844241308e-05
1080.0,0.0445128939606578,-0.0024832516162796563,1.0228228443329634,0.05023739196243335,-0.010556680737575198,-6.485429361811355e-05
1100.0,0.05385668122118258,-0.01557427897315607,1.0288127951548853,-0.05200783154023693,-0.0015061810387202695,0.008751140130489147
1120.0,-0.033298682289046574,-0.0007509495281519008,0.9996401292891164,-0.14040996145483017,0.004814821297332517,-0.006558881019723672
1140.0,-0.014307062733722679,-0.008000182410370186,1.0061431906473897,-0.20529111948592083,0.005371942643213664,-0.007313048097126405
1160.0,0.01293478904912963,0.02316548457211398,1.0207276071903209,-0.17989878411997712,-0.005348505748038342,0.002206204870897031
1180.0,0.0343553417145354,0.017393384648510247,1.004494015194899,-0.07516194011384898,-0.007472653031206647,-0.0024602915221639157
1200.0,0.009596813523964399,0.03060041309531613,1.0182508894647413,0.06447795783187106,-0.006707284591175159,-0.0020985050253202893
1220.0,0.07118161636001387,-0.012231124957583583,1.0091518949068439,0.16792914144725352,0.009050620425333425,0.021985779533928357
1240.0,0.03604338886278328,-0.01780200858677647,0.9665713278117726,0.22258583978367874,-0.0010119761642288273,0.0014937740312276782
1260.0,-0.021767401983186656,-0.006457742133224178,0.9711214614219487,0.1418621773569191,-0.0036169531898730917,0.0003670509846906392
1280.0,0.08828787443855644,0.0014628248331807626,1.0473932830188253,0.012333225090982218,-0.0019625141835406304,-0.004061099759334471
1300.0,-0.033720175172044495,-0.005320707291360507,0.9831433774225515,-0.07196451487026667,0.002668742891857008,0.008778710837511569
1320.0,0.06560819818555783,-0.0019403387185249106,1.0332330105054635,-0.16762180211900918,-0.0020189639452426796,0.0008165060365330235
1340.0,0.002584499353470819,0.018851770257876398,0.9886726099140294,-0.24002466842942513,0.003994583106455482,0.005362940743153042
1360.0,-0.0592169944681567,-0.008288740814239661,1.0148745755643636,-0.17468322066116787,0.015676131721388268,-0.006040955209391578
1380.0,-0.03873247874137009,0.0019790430606661724,0.9901134820118558,-0.0585931644524587,0.001318214618766274,0.014656214037669445
1400.0,0.04456095149708566,0.027690425508187053,0.9469019738194752,0.09010219625407423,0.005062710182597831,0.00720159463194621
1420.0,-0.021024720437233975,-0.00497848225105852,1.0001171318949382,0.1660145047801406,0.002842941400263435,0.006785407246525822
1440.0,-0.003600563536289646,0.0096194275069433,0.9927500442242548,0.19591911612622864,-0.022988480298555738,0.002321247531551361
1460.0,-0.06710535673357787,0.0389500031372929,0.9691214003275631,0.13614704583531492,-0.005362336340479445,0.0014182314858716771
1480.0,0.03689768951390161,-0.019423794839967312,0.9967221675696374,0.05446380447495127,-0.009867720613161159,-0.009931534191853036
1500.0,-0.09393616689714449,0.020845449540741256,1.0245925351329643,-0.08858480552976836,-0.014352016248049807,-0.010156795856893573
1520.0,0.004203142127128356,-0.024455123353032713,0.9461216390852472,-0.2088272678137687,0.01704854740005928,-0.0031612682341056395
1540.0,-0.02742695946963195,0.01739982487881295,0.9858688947533283,-0.20069986046782887,0.014088634145192349,-0.003628157628783229
1560.0,-0.02227832575673948,0.0028636662457426822,0.9973499536141965,-0.15422755190173681,0.0023630927408319607,0.000807610893340392
1580.0,-0.04993903694787964,0.002062911799712986,0.9899788395068787,-0.012373886098832203,-0.011127417002327937,0.006561253885108423
1600.0,-0.03530927471964075,-0.005304670896044773,1.0264071001097492,0.08900058128882414,0.01400839368457604,-0.0010859377359290368
1620.0,-0.04966003199171868,-0.0019405178999288284,0.9947364424067697,0.166665091219969,0.012342169825055913,0.003344943737495872
1640.0,-0.038868303475677275,0.004387002668634161,0.9450012353019083,0.23837361306965893,-0.01736214786196561,0.011213779111656717
1660.0,-0.05374323172480362,-0.025331113695682063,0.9989242091610072,0.10675276723105802,-0.0056129642646483525,0.005708919521374344
1680.0,0.08931311247290596,0.013694618896464957,1.0134430433123136,-0.0039989534516099365,-0.0008204193204702834,-0.011593345032740551
1700.0,-0.00914680933294799,0.00010758876147753675,1.0185266929133174,-0.1193542831776537,-0.014421648361134949,-0.010613036446052597
1720.0,0.012853138369915288,-0.014373995816883348,0.9960877431714532,-0.18772504050642308,0.01089172334310665,-0.0002722895807723563
1740.0,0.016587332578361962,-0.016518525329196117,1.0236294215407442,-0.2143111691084089,0.0071714933437218,0.002515128802597233
1760.0,0.0723609406414238,-0.03142781616126606,0.9695155620934253,-0.1411887778952911,-0.0037809103450703574,0.012593059424535907
1780.0,0.04474323943219812,0.026620973417398105,1.0124707289651254,-0.01448897392229899,-0.006411822410598964,0.006581104663554908
1800.0,0.05921032715166943,0.010648882407317315,0.9788962240091049,0.088072813284152,0.016998034516341284,0.0016388116709401418
1820.0,-0.05425438692462845,-0.027170916771424292,0.9954441821095567,0.1264441791103918,-0.011371712369525052,-0.0016933026958303827
1840.0,0.06102580251095378,-0.008023772408641381,1.0022941039768123,0.17076890664057431,0.0051094393845464445,0.0083794088394037
1860.0,0.026836431617372335,0.001111564175559837,0.975239462831963,0.12176062250517034,-0.010403800162690015,-0.014226471440569164
1880.0,0.006502034102508074,-0.009806788836324134,0.9924834038049034,0.01116330260321747,0.01433721509669922,-6.125150496852792e-05
1900.0,-0.029587310765996133,0.003732091139908477,0.979147585083663,-0.10655840161750747,0.013698379486934913,-0.006069776823402281
1920.0,-0.09461791683978694,0.0147639221650199,1.008730207734819,-0.15345386901554509,0.0006854927261323832,0.0037014956901444684
1940.0,-0.11099698652809811,0.017853192914800142,1.029881132911747,-0.17058097603833186,0.009926903809682032,0.0002919699847930581
1960.0,-0.07254061415573468,-0.024051036351044584,1.005358902881942,-0.12042221866251741,0.0007520960856428885,0.006273087296001507
1980.0,-0.021030536815489404,-0.018762896105420916,0.9821597112804233,0.007558277552217954,-0.0034456188228832443,0.01422676577639664
