timestamp,ax,ay,az,gx,gy,gz
0.0,0.03610928934664602,0.004624976536273516,0.9993235244312728,-0.01797885738021993,-0.0037927440965987865,-0.004860291367400645
20.0,0.023001588302254013,0.04445682792349956,1.0311201432442827,0.13926144046283287,-0.006526712180507127,-0.008772803561295447
40.0,-0.02852455546024852,0.003244818912871205,1.0082868438585764,0.17563705692140558,0.019400033662235406,-0.010795616540996826
60.0,0.008871788455309334,0.012118554658044702,1.01648630607438,0.20877541653734008,0.004366040344376131,0.01925993083366742
80.0,0.027845424852373787,0.022381325638633213,1.029552368969242,0.13015666273113496,0.005905454081282081,-0.0033710077753160432
100.0,0.03533693856640052,-0.00014673188299092779,1.0020155984436336,-0.03182588840558187,0.004848306065253447,-0.004345201199801252
120.0,-0.019250994601693935,-0.004024111933361528,1.0288530352905805,-0.09708857140052556,0.01338744840605598,0.0035603795477649105
140.0,0.0661454104248091,0.00294377122319497,1.007021441218347,-0.22684056770371938,-0.011796946139573944,0.02107044422178062
160.0,-0.022230817482265283,-0.005110624207800504,0.9885241673652985,-0.1643900308346316,0.009781205377103828,-0.02461673801602047
180.0,-0.07152819659897107,-0.004363860702165522,1.0205037443525615,-0.09635647933397501,-0.01620775576474178,0.014986993111366568
200.0,0.0247471873933827,-0.01072751897894449,1.023208764173235,-0.0032526985852893344,-0.009549848125770272,0.009645354799414743
220.0,0.056762486804874245,0.03239934560037995,0.9997998782286394,0.13282001201343266,0.01852248343831864,-0.003102115693062058
240.0,0.16273100175967653,-0.01884647253097837,0.9687150853415598,0.2180480701644924,0.01477898496585922,-0.0045737404852201685
260.0,-0.021927940199175947,-0.01627904384307964,0.970296345422193,0.19907058886044704,-0.01698954302374748,-0.00016857166967285957
280.0,0.07061660965386479,-0.0033325915472670283,1.051157224547562,0.10202067087258543,-0.012418029322699028,-0.014480080991386358
300.0,0.19128281219853938,0.004094947668488571,1.0276760223556873,-0.027060208882168292,-0.016453160504670127,0.007238003089586948
320.0,0.21935020460681287,0.012243764910528596,0.976438310028754,-0.16053379678297794,0.006221167336872673,-0.0033303372308999004
340.0,0.3537512680869561,-0.01412000932777178,0.9715701565478742,-0.20441479716260416,0.0004347003832029095,-0.009726922653684135
360.0,0.36383136810295985,-0.01023455906532485,1.0200859528464825,-0.19965165487990288,0.011659990384385794,-0.003266146621194522
380.0,0.5198800622663254,-0.00825284181500184,1.0169124627830546,-0.10742679605831826,0.003965065850599305,0.0008303760059406433
400.0,0.6293273031211462,-0.0016770008501054577,0.9898079740376647,-0.0268513656967281,0.00871378019605076,-0.005177886123199912
420.0,0.7003766866245585,0.009389016883125583,0.9906281336838652,0.13388747803631332,0.001486680215615468,-0.007420015261921981
440.0,0.7681922350734214,0.019351917367442333,1.0003317588401186,0.19927537190704786,0.003939485757321911,0.011454025635273368
460.0,1.02739531046588,-0.007069205506122984,0.9797850743675283,0.21540665992889835,-0.005268234969014918,0.007853225112557457
480.0,1.11293952775209,0.005330518385158662,0.9820493195659874,0.1029690251039024,-0.015908823921549957,0.0019949568807830957
500.0,1.1037752493999455,-0.0102272214982926,1.0346265573840443,-0.01062659034623991,-0.006062114873640624,-0.008398409887499693
520.0,1.3133227239043617,0.006317022179634541,0.9903671081468579,-0.14640851954177195,0.00025769712235523156,-0.003149610736375539
540.0,1.4068551738978818,-0.0214049338583479,0.9749704253130902,-0.18965496784837266,-0.0045421151996677105,-0.010678222133018129
560.0,1.3974077598463353,0.020237504013879283,1.0159805648300722,-0.2200381389621428,-0.003995610748380332,-0.010949987783046318
580.0,1.5443636504644715,-0.012007665916665607,1.0184653684613885,-0.10489054194941841,0.0033161506366251475,-0.009390997791192537
600.0,1.5142712113591623,0.027714803897994113,1.0310410972258348,0.06686194584626468,-0.010066734453670345,0.007162560463908038
620.0,1.509335451310268,-0.02522052374019393,1.0392140343350091,0.135446635817969,0.009269802840408755,-0.002670365784257307
640.0,1.3825769413893034,-0.01812909678154292,0.9952079883701721,0.2046199409938438,0.018691108521893932,-0.007281144487448286
660.0,1.285022406226943,0.031434394634465866,0.9755148193507808,0.173883451064358,0.004183982094893692,-0.002067683701577283
680.0,1.4136336899478261,-0.008963644088994494,0.9863040971323673,0.07748267042641667,0.015251677465447333,-0.0012258213515236986
700.0,1.1139434401154433,0.005111156560758121,0.9844675122404297,-0.0393189202770521,0.010141539711441239,-0.014244720248434262
720.0,0.9695248316524483,-0.019997642845590913,1.0119307511937152,-0.19063532986086867,-0.0035919213007166223,0.004058570776028436
740.0,0.8868357348204405,-0.0011149640463529703,1.0035009670680821,-0.21750428667438426,0.001913713410112712,-0.004431109877065449
760.0,0.7119358287269602,-0.0031382344987064353,0.9945555206629867,-0.17061516784995107,0.002918565287629551,0.027113683200056846
780.0,0.5869695697657076,-0.009031562832156913,1.027485532243009,-0.06355849546416235,-0.00765724550295669,0.012213270259923241
800.0,0.5356216232584629,0.0010650945604238364,0.9638876262826949,0.05271718693839597,-0.01318920096843413,0.019990816634621274
820.0,0.36491842186409595,-0.026980937251421266,0.968020174369551,0.15331532009616905,0.015665721003504877,-0.007527426930847244
840.0,0.24427760520837752,-0.01900008261418879,1.0056049821819923,0.20529957528422219,0.008859116338188667,-0.016584655535417363
860.0,0.15529548162201814,0.0029328835757483603,0.9887017255360163,0.1486694207260253,-0.001357326192010792,-0.0015435681700553237
880.0,0.17111787443257928,-0.003065118016341291,1.034758555663987,0.08626685103618836,-0.004782230525667355,-0.013726384851573348
900.0,0.11971525244657905,-0.03183634668057468,0.9998453456814006,-0.06635569203485987,-0.0010121557034133946,-0.003114111714593996
920.0,0.1130066198711186,-0.03083364678762997,1.0070168003174103,-0.17797139718468108,-0.008437631841773213,-0.01659707656945642
940.0,0.14584480278800668,0.020882117962829367,0.970811752158771,-0.22355774177285417,0.015175264026748316,0.009840357348308884
960.0,0.06490263865771231,0.00739899253727679,1.002692942347284,-0.14299833770318318,7.104888687084249e-05,0.0050835285159001355
980.0,0.11055228674656425,-0.009049065427183738,1.016236080899121,-0.08713758701372795,0.018643446566826358,-0.010946176821760956
1000.0,0.022320038892076177,0.02725760985489431,0.9935994511276266,0.04129316131795624,0.002614029434486152,-0.0051387236942110545
1020.0,-0.033607166978466635,0.0006425891239826662,0.976754262738559,0.1816695951329943,0.01950135931201848,-0.004952038733538045
1040.0,0.04348608484792316,0.011360004058133064,0.9812371910913285,0.2122135934477593,0.009101074329400051,-0.011864691652654144
1060.0,0.0366850549360482,0.041980093696508354,1.0106276356883315,0.1503683542204508,0.0018038017393897175,-0.00899517681863697
1080.0,0.029808461417933165,0.0023141312498695154,1.0267320382858065,0.028717940261111165,-0.013491871376473404,-0.0025529809961887997
1100.0,0.03334169889475889,-0.0002985333486789965,0.991756440207942,-0.08637829566659229,-0.025627678978358857,0.017208746231142144
1120.0,-0.12657784865611235,-0.012908012751647635,1.0092956942311748,-0.1521343141015268,-0.007837692758606175,-0.015467627767927324
1140.0,-0.031122290964155665,-0.026522225654298542,1.0433790034665473,-0.22737083986993095,-0.005181418691614543,-0.009180808419254087
1160.0,-0.025012343099567846,-0.007974727958204456,1.0179019961156548,-0.17157083647261112,-0.005786825859380482,-0.013345096059075698
1180.0,-0.005843521690885987,-0.0026409810940940122,0.9809282996275367,-0.07923055390677335,0.007143045547904362,0.005775079603430573
1200.0,0.033975767616358434,0.0006874225353070109,0.9787829204785592,0.08329366005140466,-0.009471996981769424,0.0021565863934804035
1220.0,0.0024018523953732752,-0.006361335869417193,0.9836980076665989,0.17812411602342376,0.010211026839914941,-0.008646917372005658
1240.0,-0.050857427105487074,0.027969590529055198,1.0022091701481448,0.1946021350640295,-0.002007698727635745,0.004646743535209869
1260.0,-0.018316499504396788,0.010237770863408857,0.976356443746797,0.1803334386241714,0.005540713205668778,-0.011332907470048536
1280.0,-0.1242984382322057,0.012676639406187214,0.9917017916653305,0.035387883220467986,0.004194887487018048,0.005889478026032511
1300.0,0.037521935123216825,0.007004314561791709,1.0408356856729932,-0.08466458438142947,0.004976069059051307,-0.010598175936373796
1320.0,-0.030833718434136233,0.015585897751653434,1.0114636871643852,-0.17011686734781245,0.004468470408168376,-0.0020014470537491774
1340.0,-0.1041421704845845,-0.04153983333884585,0.9701850317462963,-0.19970286133778897,-0.0018057695725900496,-0.0028124095203097953
1360.0,0.06659381523010131,0.041543774095101765,1.0105310003053654,-0.11185564454587901,-0.003880646004275804,0.008037592880533765
1380.0,-0.047159920097757234,4.570519205931515e-05,1.0147198317325161,-0.07100339063387423,-0.007660572097364463,-0.0048110891240154266
1400.0,-0.04277917945924063,-0.0036166296753362298,0.9734665166477166,0.07943768504037454,0.00451493960521711,0.02717673192229981
1420.0,0.03473823608426714,-0.0038052099588443897,0.9813115792955699,0.13646998124314974,-0.002497868494322247,-0.0028649398213831663
1440.0,-0.07051568007317997,-0.008336415148835196,1.0149679001574967,0.206942818357306,-0.00392942825029002,-0.0038081205842869473
1460.0,-0.04185229109710607,-0.006669013110556733,0.9822341577943791,0.1575405181494541,0.007120853972930053,-0.006509263835029062
1480.0,0.10084777594284687,-0.0026925576307650053,1.0321406029466567,0.026853429215307045,0.001339774723801252,-0.01460176926844684
1500.0,-0.06928522549759633,0.019038014885128553,0.9846730629808418,-0.08275326237895204,0.0021626006387115756,0.013576965703755578
1520.0,0.02994776883641974,0.009600384966202212,0.9818845819486055,-0.18650035194163597,7.188977619796768e-05,0.021872754482518283
1540.0,0.07870196846482402,-0.006100519310024418,1.0015160553072633,-0.20066292992185425,0.00551136556013574,-0.0031729386238716502
1560.0,0.08905925032447809,-0.010757653004849772,0.9832270319336623,-0.14963876282809524,0.013758079568809353,0.021992533347266256
1580.0,-0.026543415248173063,0.007301532094585525,0.995588564413093,-0.022464448581777718,0.006905703387853513,-0.010284267978716208
1600.0,0.13726411655102871,-0.010131932915677329,0.9764190508954785,0.10667304954518307,0.013815690140956247,0.0026745328089475867
1620.0,-0.014975061118360734,-0.011789698159155634,0.9979754442878722,0.1564918169401633,-0.010061469082797257,-0.00549794335325126
1640.0,-0.10071089668534319,-0.010978345607592175,1.0078921219869144,0.2359143989565402,0.01648457795169655,0.0046461375348779786
1660.0,0.025292548606925,0.01809898502997123,1.0106625732346948,0.13928072332930552,-0.0058267731828897384,-0.006455670156470597
1680.0,-0.010692683630062746,-0.009095684382556276,1.00433608929799,0.0036089300270623764,-0.0028818978628606436,0.010244140794245425
1700.0,0.03667080613665086,0.008960542804925893,0.9802696772827578,-0.09674231771521234,-0.0007835493310061851,-0.005750036778285752
1720.0,-0.0212459587459048,-0.000732540135948021,1.003548459876746,-0.1680846236643998,-0.006553329515434679,-0.010457210027510013
1740.0,0.0006421677876638817,-0.022403584065875483,1.0106218336291743,-0.1921176984392925,0.004494275091671734,-0.0021062716381032636
1760.0,-0.013045325411632345,0.006491337081946046,0.9878137397554407,-0.11463383024656768,0.01290830853547884,0.0004972253535022846
1780.0,-0.038461608229586754,0.031299918643952464,1.016119068256529,-0.023208962760394535,0.000792988785679679,-0.01043062542367055
1800.0,0.060252877916090575,-0.008956895375291957,1.0148043812746006,0.09882960211921889,-0.010134345644861922,0.004035312037428247
1820.0,-0.03871069191416171,-0.005198511508274721,0.9938493844881612,0.16296512584990433,0.008297700215859407,-0.016530069561489228
1840.0,-0.012275954455949183,-0.004148867470911649,1.0175393523015017,0.20705169456903447,-0.01108669567847758,0.023312677364151397
1860.0,0.0071586039159356,0.010264114615691346,0.969629507581595,0.129282593542296,0.00319815188590889,0.006138246680726703
1880.0,-0.027291478806693067,0.01625632921355091,1.015929055927583,0.01934581062889491,0.00780753688635248,-0.005795092851524276
1900.0,0.06173803496495428,-0.023916861105578852,1.009916699749672,-0.12061842552582655,-0.009805243315306956,-0.004816812512357052
1920.0,-0.064472764937887,-0.011378841079177748,0.9838679334064976,-0.1925323373236265,-0.006221898780863197,-0.016221393307745538
1940.0,0.005655263999414005,0.002767690236281256,1.0093600370888922,-0.15842523029061895,0.012379845468198902,0.003954018075515703
1960.0,-0.008727202577884178,0.010823479666386178,1.005447390432031,-0.10503196120484443,-0.01590656497082884,-0.002633676424871776
1980.0,0.045858514894205234,-0.03157315590758947,0.9819385648009324,0.02074193128722833,-0.0019854238762169792,-0.0036209737728132964
