timestamp,ax,ay,az,gx,gy,gz
0.0,0.03246037809018862,0.024154436573192654,0.9813756489185854,0.024786751305094758,0.0024969749498431905,0.0009217051323631489
20.0,-0.0046391217155908535,0.007943727335154973,0.9875299254382935,0.13002470502203256,-0.007317586990014457,-0.005912734232861701
40.0,0.01599392540493665,-0.004265749674262821,0.9848501449367828,0.19026823948946595,-0.0033849268887550833,0.008191473813332836
60.0,-0.030090672337280966,-0.03066106188194017,1.0349121000656794,0.19727871617623996,0.013489400042786885,0.02239984673286044
80.0,0.051676768178146495,0.04068090114115459,0.9931622433563954,0.10033314206585539,0.007616260021385716,-0.010433860757013318
100.0,0.015064220517981494,0.024296085542496876,0.9974940435249707,0.017118453997335626,-0.010569381707893462,0.0019860813776845987
120.0,0.005200850593131659,-0.0033991391634656393,1.0219270439896626,-0.10086784325085382,-0.0036052982165814002,0.008143493467026796
140.0,0.04037058748083352,-0.00873302675546836,1.0295904511093779,-0.23814816937435662,-0.006475431067439375,0.01310202557799783
160.0,-0.0543565347636764,-0.02780730837844495,0.9921838601439863,-0.19552133539646918,0.0006938425542857362,-0.004030080627440209
180.0,-0.009889364783480422,0.03313467298311423,0.9737156798684568,-0.10688625124699097,0.00836739328115117,-0.0024197340048898817
200.0,-0.022641680264135843,0.02888428059278195,1.0220280305365925,-0.024995888303139736,-0.005814348730141472,-0.005009773443712225
220.0,-0.06482304226297009,0.008383385034071204,0.9818094683218886,0.15502337204695515,0.0015022797915519004,-0.005949902521191843
240.0,-0.14702678773569283,-0.010398837812744517,0.9973861798375534,0.20613036334345267,0.0016768455385081141,0.01717516764684585
260.0,-0.05465964917932223,0.001001420501992071,0.9926522441938308,0.1898627380478811,-0.001351631316440436,0.0030440666051203993
280.0,-0.066822856936605,-0.020005351202521546,1.0096083923822043,0.09915104138325495,-0.017158610074504272,0.00223782637760724
300.0,-0.1704341560239146,0.008243965291322793,1.0001277606073482,0.02111740658329169,-0.0006240420008771087,0.009665172862503398
320.0,-0.1963528717941276,0.0012928755357986988,0.9849093091423805,-0.12148653336329734,0.008422859952276738,0.0033911904353307893
340.0,-0.2642977213522935,-0.021552440432918995,0.9805278822057598,-0.21061154307321003,-0.00693564492174495,-0.016451875435942277
360.0,-0.443582125844514,-0.010508055398257445,0.9856572443541811,-0.19591770611257572,0.009134151066229241,-0.006429360905133418
380.0,-0.47622905898837586,0.004036396708563631,0.9831073310608166,-0.07038761469989273,0.00535539024252028,0.017871474685934793
400.0,-0.600449806425024,0.01759805486759544,1.0085833018588195,0.04057788652658598,0.014633121311371892,-0.01024641857876928
420.0,-0.6891108978212492,-0.013854954048212804,1.0086373072859658,0.09119433072588687,0.0016889032613532956,0.0036908584226096643
440.0,-0.759857248924419,-0.006637463541629964,0.9692178714196074,0.19192123790902593,-0.00010361118085071264,-0.0010967994588376312
460.0,-0.9594495359703126,0.03582679417045724,1.002244962084098,0.20950057485230153,0.017332284350188455,0.002000829860013871
480.0,-1.096413830168921,-0.004993503415303203,0.9810245931932925,0.11719955277659633,0.00028609690673154017,0.00029096117322313696
500.0,-1.190111668340458,0.004995328573346208,0.993564847830597,-0.02678113456083856,0.0009053017416398548,-0.0002593527968011741
520.0,-1.2522938446765775,-0.0013795689116340288,1.0006755133369916,-0.17163105861940783,0.0025367876320977747,-0.00843951972802698
540.0,-1.4704559982572663,0.0034250028979358666,1.0406070939082401,-0.17042643115366282,0.006468641007545397,0.020181896643694745
560.0,-1.5001338505551904,0.0013266137465968637,0.9985423718686709,-0.16260216480686035,0.0012097152956797035,-0.02410800216378341
580.0,-1.4907535143775874,0.012582503944287893,0.9954784839243679,-0.06398972122995444,-0.0026524844699339347,0.00607075866971976
600.0,-1.4531115338512983,-0.00670779852471579,1.0097198845340718,0.05420311041417988,-0.012364957161750154,0.013138373610327235
620.0,-1.4498886471465209,-0.015546217417839507,1.0002585244205298,0.15005430058121352,-0.00705705227297373,-0.021872181713903604
640.0,-1.3836277369404688,-0.024294253674453845,1.0060593075122932,0.1988768620224532,-0.0032393917362014053,0.017529360237805595
660.0,-1.2794344656985885,0.028656055517778372,0.9899843031708564,0.17347981338538263,0.002113532922623022,-0.0063303014582968675
680.0,-1.2693766546006957,-0.0019052755500126078,1.020142838678489,0.09234895981572278,0.0013236581228543603,-0.005821089153632147
700.0,-1.1571434207114366,0.019552573934374956,1.0044462652968804,-0.04819186808368722,0.0014053726406874478,0.003660688570971347
720.0,-0.9411736987246531,-0.008404539715452916,0.9789649941861476,-0.1641276848288006,-0.007686948628189866,-0.015881816107975864
740.0,-0.7642035020599985,-0.0034981956526973553,1.0101867328682377,-0.18176964574386806,-0.013351377539367732,-0.006764240833084958
760.0,-0.7605320708414237,0.006234074884058909,1.0146606009868213,-0.17538390726156644,0.006831186419466074,0.002715984434934944
780.0,-0.5921490952116307,0.0005955998228241418,1.0165007955238097,-0.07047865852385803,-0.007804162786418697,-0.02296197533186814
800.0,-0.5191598348115963,0.03266665102471062,1.027152575612316,0.056019946271586005,0.003273331636464508,-0.014725143802786571
820.0,-0.35747658468797056,-0.008207536931227964,0.9978091363724715,0.15208804390403205,0.007288328824411472,0.01370637835652827
840.0,-0.3172385848325502,-0.030547336960627877,1.0037169430551092,0.19214094362897796,0.016686510509805724,-0.026392025470450668
860.0,-0.34745848196742973,0.006603666876008878,0.9943633486790546,0.16898588392497405,-0.01917018494844433,0.01343707239167494
880.0,-0.2969367559303342,0.0017647614114241594,0.9995540372263557,0.09504554290509976,-0.007655785187425106,0.0033678631107011752
900.0,-0.1656101483463967,-0.013547348423351627,0.995620812142203,-0.10269726018020024,-0.013299137871682161,0.020377110464854954
920.0,-0.13196218687489536,-0.027097898479359263,0.9855333213697043,-0.14019696071335108,-0.00889705246579342,0.0009004954360347824
940.0,-0.084549396525218,-0.01745229956018233,1.0266675413961528,-0.2040159089068133,-0.0006519132455490806,-0.0061701460664554605
960.0,0.021062572548417417,-0.008088808032686263,1.0072800618614102,-0.13318691102487693,-0.00373540402374602,-0.00576714052594801
980.0,0.01953425068786538,0.00845752907423237,0.9967585595287819,-0.07956135951007594,0.00022864803237980361,0.005097922848461229
1000.0,-0.0019309897070455204,-0.00583078413575686,0.9874888531761711,0.09059383885399482,-0.01680220749760998,-0.0005470410514786467
1020.0,0.044304664653761205,0.00896057534528837,1.0173233565797524,0.17948877463727878,-0.0028458015038463165,0.015129468145314205
1040.0,-0.036834102616740666,0.017097087623378446,0.9975289524439764,0.20677027076326943,0.002516266569613566,0.001960224866606395
1060.0,-0.050066095553903255,-0.004607362022088099,1.0162145034164258,0.17108817066733822,0.008888829491650194,0.008143422063590087
1080.0,0.015669099691484223,-0.01959524186058594,1.0059618367503682,0.050790836201004635,0.00032853128458635,0.0074612398253152655
1100.0,0.012544645148390706,0.015000409345215363,1.0240402106851627,-0.06031824835922925,0.0006268832607109001,0.005965706475983715
1120.0,-0.04277369952036287,0.038099053708228865,0.982083525440246,-0.15136003093351935,-0.000936253048469795,-0.007535266372251472
1140.0,0.01324678509945833,-0.00869195688043363,0.9933720260549941,-0.18240783814970193,0.00640847003342652,-0.016504364206738138
1160.0,-0.06510296919462358,-0.01876463139537763,1.0111812662848325,-0.15798555452851457,0.002703801726912131,-0.006173131883222314
1180.0,0.014330983346644769,0.02599209944394926,1.0016649615437818,-0.025668753183365516,-0.016195155232163725,9.607163834086765e-05
1200.0,-0.02657936979207593,0.00022920914706996652,0.9804484201054898,0.040368034396302974,0.006878135611795712,-0.018593940180437155
1220.0,0.0013034568393843825,-0.027942239020995383,0.9726597523079183,0.20620503313303834,0.002792508117691246,0.013153893040546885
1240.0,-0.023046597560601827,-0.013865415728766184,0.9995664305247574,0.23404537519565405,0.013688151699896858,0.014828899825148859
1260.0,0.02524868204198694,-0.0030718626005467537,0.9880689460924977,0.10665588530693502,0.0022008692387148533,0.0016789304546553916
1280.0,-0.08291682440629637,0.020376907354685492,0.962337863958985,0.007939970349755111,-0.011912727567979058,0.011831245042110167
1300.0,-0.03317132376134933,0.0003859311933569319,1.0335553881553032,-0.04433646892472545,-0.00030617310031526334,0.004576231413452488
1320.0,-0.0022485221189089168,0.0035219241801999557,0.9733455260988327,-0.1607244346051194,0.007298208745965118,-0.004190016560591944
1340.0,0.057668842629377604,0.022156376652883638,1.0302841173567399,-0.19661337093176823,0.011783907811941649,-0.003521022890658768
1360.0,-0.035745560118140826,-0.002222326018562482,0.9748199882448961,-0.1463266275851038,-0.0010699077882328804,4.0799959795115476e-05
1380.0,-0.003016264890657764,-0.015967094689231374,1.0274468776571064,-0.04262667031071238,0.007166002658878994,-0.014476880725423191
1400.0,-0.060396075334825536,-0.012819279260781616,0.9993464005026125,0.06955868200657572,0.010039881546251555,-0.0028524499972377012
1420.0,-0.027783565993591778,0.027907396344016726,1.0188605612629564,0.16259209994739032,-0.007210814565168228,-0.0004732248274309238
1440.0,-0.023645566293497185,-0.017649752439612167,0.9766450942037493,0.20391561903814656,-0.005070678226467961,-0.006596316977031232
1460.0,-0.009541531666351324,-0.005778772407287745,1.0116080674540309,0.15860106172129323,0.01075449208959704,0.008213624373300914
1480.0,0.023866004224847612,0.008463455776728732,1.0032423322148312,0.03609802668502925,-0.00791500608333027,-0.012001455630960165
1500.0,0.042309544618480764,-0.020551535186033195,1.0327887855642903,-0.15225889799566428,-0.014412027190095395,-0.028222534070391683
1520.0,0.058858258937813095,0.028342232489676523,0.9978810093744357,-0.18489093803768158,0.015913303757095973,0.0106070389961643
1540.0,0.014461035711680705,-0.019495902219889012,1.0171342795954847,-0.18588337479720538,0.0017957036299021101,0.012439271991739206
1560.0,0.04066791487333772,-0.0027291028225145397,1.0117643852830394,-0.13788468471344367,-0.003538934140640964,-0.0024741915320027463
1580.0,-0.10637966407657176,-0.0007266559206379587,1.0147496236771016,-0.01349984739914435,-0.014045271991843009,-0.0011004466740952986
1600.0,-0.009386930009782685,-0.02808276064445453,1.0118380913193359,0.10456224867215341,-0.006967903412676994,0.015600904338201027
1620.0,-0.009217406148968483,-0.015553751898380692,1.0152372136733947,0.16609974365519567,-0.004274171299599758,-0.0048593846997250926
1640.0,-0.0024196314111270966,0.011769637390872919,1.0008319527385623,0.225536767243901,-0.011376906565514126,-0.013388522767126806
1660.0,-0.070478169261342,0.012329991621493046,0.9861711912951192,0.13486577046653606,-0.014414213888414221,-0.001454462963721082
1680.0,0.030092821220579043,-0.01242444982417513,1.0192670882884385,0.03395431615063247,0.009752070648025695,-0.016962383163304166
1700.0,-0.03173985036079105,0.025069230091593606,1.0093854099586195,-0.06326650675342776,0.00884808056585225,0.006170547117246214
1720.0,0.005873551434655954,-0.001899363602950689,0.9845703330130688,-0.18294876585726494,9.956723510513326e-05,-0.0017137594237388394
1740.0,0.039616366802479736,0.020126014735242934,1.0021988059294098,-0.17602248107418556,-0.003305389181722608,-0.010542880675013664
1760.0,-0.018421034971408953,-0.02252388436538532,0.9878100820477617,-0.1471303501928979,0.006257207171036033,-0.0013314735519712577
1780.0,0.09616771105209217,0.020760391854019157,0.9952901407423763,0.00015656057969240002,0.015238919935009561,0.01630638427617518
1800.0,0.024148444393117818,-0.029752811256201966,1.0234291345604152,0.1180130557759101,0.00919299153578911,-0.009171905220279143
1820.0,-0.05852131763641025,-0.04119357423862033,0.9860589176989175,0.16299707440697708,-0.012446249439109339,0.00922868135136516
1840.0,0.05575142055639647,-0.015931266377461766,0.9975030546756213,0.20311765376647062,-0.0011821203024017022,-0.0019043386462900894
1860.0,-0.010780371366829248,-0.010335811433606248,0.9804462205175982,0.08825327911200975,4.09490945683401e-05,-0.01506267849060121
1880.0,0.04514187924343152,0.0021313028719352136,1.018246373333588,0.000965736297196926,0.028511232149871606,-0.00740386465750098
1900.0,-0.007909718578106536,-0.007847348635507881,0.9810014877685584,-0.1275229190308378,0.000562407058962825,-0.0008398861912428916
1920.0,-0.014568823904725811,-0.009208879320848296,1.0363712387388315,-0.1893598279607024,0.0021927530206720092,0.006661790336348758
1940.0,-0.051485681203432776,-0.018649409790156543,0.9969957651523614,-0.18354287061264435,-0.006477789424887602,-0.022526441013868533
1960.0,0.009080741503977549,0.010537494921261926,0.9964307389106367,-0.14219762409455788,-0.012058539686395784,-0.01609232702894107
1980.0,-0.03339685645791123,0.033950186375925194,0.9905484399375907,0.03713750671206353,0.004559789374425713,8.229722699428338e-05
