timestamp,ax,ay,az,gx,gy,gz
0.0,-0.055695971591537975,-0.027089821505423575,1.0274087345735023,-0.010748053107657666,-0.01762670812297597,0.005124760137313281
20.0,-0.011682401699974242,-0.014875011500558182,0.9814088185122868,0.11836347965921727,-0.01130991910972715,-4.8335795297517286e-05
40.0,-0.08079772683805027,0.008045325721371935,1.0204514583196544,0.1868551654750218,-0.00366306945540183,-0.003263864955123166
60.0,-0.043971278527644764,0.01023001424128285,1.0050560641279553,0.17231039535259673,0.006243144545717916,0.0006382546169080191
80.0,-0.049140067048968714,-0.0009381055908365786,1.0138174308957162,0.10537397883764316,-0.010555776472111153,0.002241273923742656
100.0,-0.03020290828345812,-0.023100204884428082,1.0106390491273591,0.021597426111893695,0.010421855349146114,-0.007074731383659807
120.0,-0.02446292902008311,0.007026244273754897,1.0247481925395296,-0.09333565931296287,0.004122166508432641,-0.015952124803682403
140.0,0.027582704854552616,0.01573034661039105,0.989637903675621,-0.18254350270409703,0.01586586719250812,-0.005385941353643064
160.0,0.043233686058154114,-0.007341438604569535,1.019967186666181,-0.17657998224875915,-0.006206723963483637,-0.012406002951893185
180.0,0.08932337457118815,-0.04489105587691608,1.0195007526427917,-0.09010833793566547,-0.00737724884567734,0.007651661429013289
200.0,0.06462878086872408,-0.0054607303414380215,1.0420871211966047,0.003972535096094437,0.004565844999071814,-0.01891466372903661
220.0,0.09119001952062894,-0.016602754887813348,1.0003246244526334,0.13809222389557824,0.013988583470225571,0.005069119501359778
240.0,0.08372758293002727,0.039752278991905365,1.0198837646481167,0.2032759155986259,-0.007417163561852143,0.006629221282125025
260.0,0.05423301585495924,0.010491812166679644,0.9873683048680566,0.19386597419493692,-0.00594146539160029,-0.011778753762148732
280.0,0.12136621330168289,0.042698886936739594,1.015593646048275,0.1073353727645132,0.009942951315254024,0.008313057135888015
300.0,0.19037112658800165,0.00428730285963387,0.9690525809652856,-0.021111257619013644,0.016195428595659644,0.003713469220724326
320.0,0.2282548914500918,0.018601756290313513,0.9893913285619703,-0.14703056057555527,-0.020742414275587734,0.016436503193488133
340.0,0.34327335698132444,-0.012571243543864834,1.0194903898038719,-0.17718847591136064,-0.004624525559063176,-0.0031542375059178604
360.0,0.36963540592504857,0.020171606848455946,0.9745407442308557,-0.18704635222865137,0.019122871428580126,0.026914310169766628
380.0,0.45086789463367805,-0.018151028797869177,0.9976988074947698,-0.09553477104168373,0.01313165773484618,0.014353027251626625
400.0,0.4879648540821925,0.013975464178191153,0.9844954907267196,0.033308441707110795,-0.0014350138750471593,-0.0027270968169545618
420.0,0.6503977690179672,0.023771460699921438,1.0083304394484855,0.12626301739756401,-0.0003627356900602757,0.0017060357030703607
440.0,0.7950014410494924,-0.03454350817909759,0.9952455252124194,0.2229047286233726,0.013523060165532126,0.017681494004727828
460.0,1.008029493615002,0.037708534929917645,0.9703593168184462,0.18900501533473146,-0.003931080279970601,-0.002009697753729843
480.0,1.020358973030887,0.02027452560198476,0.9900011672605298,0.11013863006624164,0.014678252466965065,0.015611311644257109
500.0,1.2393620253983233,-0.004026166540594668,0.9870060644437509,-0.03539351966256257,0.010154827084385058,-0.010319655774735181
520.0,1.333446693038537,0.03199735658848621,0.9608506154369066,-0.1287437847461555,-0.012780954730545243,0.0059023843256569095
540.0,1.4281066176684787,0.0034847746345888437,1.003086180136996,-0.23245908215490846,-0.008133149125215636,-0.007225405216324274
560.0,1.4640573391892617,-0.007750081983419652,0.9917171732653706,-0.1884926098754568,0.014269067378312898,-0.003839686032661235
580.0,1.4517564614976648,0.010995794678996331,0.965113527434637,-0.05333715187903761,0.0071255882050679795,-0.007541095457389051
600.0,1.4662705314385553,0.003271824676279767,0.970490364006716,0.037593485483867484,0.00018758003488742229,-0.0003514412674045947
620.0,1.4487202294406314,-0.011599155117863162,1.0021072856771198,0.1382886943729067,0.01300111577553426,0.010494195089214937
640.0,1.4242756808187975,0.007166025103155679,0.9948079678726404,0.17386346306389994,0.003812116064193668,0.025170640965166708
660.0,1.3236552266148502,-0.015598754498863377,1.010505310503339,0.15528920820579006,0.013987665887515249,0.01319501662729649
680.0,1.2764362079112357,-0.03991660111324867,0.9989871611975667,0.052266428744390345,0.00043800577888029424,0.01847894027714829
700.0,1.2327322600759347,-0.0014619121570508746,1.0086032782056666,-0.0480170697344239,0.011983305947784397,0.017518305742110867
720.0,0.9524028910380331,-0.003076734309771581,1.0002111699639558,-0.13880653438124257,0.002446460020735466,-0.0011329501844465054
740.0,0.8439576262438494,-0.0191362493559271,0.9993340529981499,-0.23154251799084605,-0.006621128582486495,0.001768481657625046
760.0,0.7219379327523662,-0.003769720203681677,0.9970905172163641,-0.1738578781405151,0.0014008853880353536,0.005548642406166961
780.0,0.6421051964096879,-0.0138986110369837,0.9910764839067708,-0.09068412627423952,-0.0012094043325679962,-0.006145022548379245
800.0,0.5039761665184632,0.0018130960549171454,0.9504365401220171,0.05781791880846832,0.00026266773867888765,0.011709060623825814
820.0,0.34929048666194684,0.001349389492272393,0.9599468286098717,0.15509327755751065,0.015963636931250795,-0.008370924281404082
840.0,0.3397287842948604,-0.020404589865517228,0.9974537957752267,0.19168212014326486,-0.004835923281302292,0.012282919397684671
860.0,0.3850106621111792,0.05025913630064333,1.020492219999573,0.16909844868178803,0.0008751141467690769,0.01389928571688504
880.0,0.19637627180375594,-0.014747452790081921,1.0121191500316729,0.08188659969630531,0.004136980886860016,0.03852480219564237
900.0,0.10773552057198695,0.0007808235175305982,1.007294365903886,-0.07633639617647214,-0.0006645362589470208,-0.008588534424232967
920.0,0.09294189730657415,0.010257753527800947,0.9805737300384757,-0.15341608386695876,-0.02976928367011952,-0.003949415992156713
940.0,0.06527240139338138,0.023671856748080318,0.9739483760708841,-0.20317007660338002,-0.004004611999058282,-0.002004899438420665
960.0,0.1356933123843776,0.035789633652335895,1.0065414823100511,-0.1357116956436111,-0.005819045611994129,0.0075904310151534435
980.0,0.04943260772493373,-0.008064792395630788,1.020153880676307,-0.07781347978363218,-0.0008220034963976817,0.005572841831112306
1000.0,-0.0251574900430096,-0.004845166640974488,0.9693277062378702,0.04741730232384064,-0.011784220596767918,-0.011648864250866798
1020.0,0.0714623158708672,0.008584908032062235,1.0035914708895333,0.13938395357564246,0.004245117798989009,-0.0026345841374775143
1040.0,0.02374956852238057,-0.021388640343730426,0.996194409658808,0.17025111235525456,0.016139481626857095,0.0053994144373403895
1060.0,-0.081980959310019,0.018715476912025058,1.0034112199873513,0.17693602664612165,0.0023952947933321674,0.010721752551452666
1080.0,0.00601413290200877,0.016843885193937088,1.013737582817525,0.0726020349540497,0.006692170790785362,0.006742598482357911
1100.0,-0.061076292583843075,-0.010858524434758115,0.979237562980071,-0.0737003105346473,-0.009903132518287353,0.006875809307851041
1120.0,0.019850521327728993,0.0022378008135165773,1.0331384973902715,-0.17221385608999243,-0.00719202621257865,-0.00785880983860228
1140.0,0.007632017207780454,-0.006333212494532039,0.9587681059575409,-0.14696471198316707,-0.012272454536631427,0.008435001817524832
1160.0,-0.0039015965569094923,0.030197815873291022,1.0111307522719606,-0.138816355685072,-0.01689005327521786,0.008886880335873829
1180.0,-0.056832902414632354,0.010335986077168126,1.0009348559219204,-0.048841589882950634,0.015269717797769313,0.0036671727181185132
1200.0,0.04708425571083385,0.027194756547016703,0.9558426128109077,0.06646820269226025,-0.011393122899832851,0.024611738128002086
1220.0,-0.04020684324603908,0.021426540250445127,0.9953601173843311,0.13592383221438642,0.0006513014805545083,0.018425880513693368
1240.0,-0.026304708778948003,0.01888934383307525,1.005777884741831,0.21238485205517837,0.005681297846391386,0.004608365208828184
1260.0,-0.023537641430900362,-0.011615322852560915,0.988970761996877,0.17805613846233137,-0.008936153453357439,-0.003269653249007999
1280.0,-0.11167448517172127,-0.02943248162417495,1.0137322196318863,0.03130539813346428,0.008913820973450092,-0.0006890183076243675
1300.0,-0.08664315035429349,0.006600563778134694,0.994119838974565,-0.09560880493723334,-0.0036530191383508754,0.003322110736532788
1320.0,-0.021301162193095153,-0.024719853089286713,1.0038342609141313,-0.1686473070281636,0.012732570385413556,-0.009393231224032994
1340.0,-0.05384350396628273,-0.01012608292932731,0.9608381740740168,-0.17988326146626424,-0.010367908568318256,0.010726306777208332
1360.0,0.043264826889578986,0.0011246348551637163,0.9456788306578311,-0.11996453799974421,0.0020051029493427775,0.0053733249332679565
1380.0,0.02536841747177445,-0.014592230426730208,0.9673887724722445,-0.06366864052600926,-0.007405187331475124,0.016533022481087702
1400.0,-0.032134039568340204,-0.006695626255918537,1.0106123344763471,0.11673437641042579,-0.011835063064868376,0.012662155599191038
1420.0,0.0009278755240638354,0.047368239762340565,1.0072701313215568,0.16514014129472024,-0.0011717972514299268,0.006952268895626263
1440.0,0.06733629584570039,0.008011368831996197,1.023451096900676,0.20173148557559545,-0.0022944753719430036,-0.0024876576512840843
1460.0,-0.017094122791036427,0.008526492924660985,1.0118535621023528,0.12812356480727785,-0.015883454303307527,-0.005331551749979981
1480.0,0.01685635415505873,0.02475441324946589,1.0085604299635416,0.029049215208138933,0.018363761637417195,0.01443035872217829
1500.0,-0.041589422536834,-0.002107446421989308,1.0384931558234323,-0.08490287445001173,-0.001285475761467193,0.015765987370815707
1520.0,-0.0189257883104689,-0.01205567663691304,0.9920764625427362,-0.1784591631669599,0.010981248505288022,0.002411940464210533
1540.0,-0.0021531799548384018,0.02604384966858211,0.9954227744928577,-0.1650265203174922,-0.012635972124228144,-0.002027245146623449
1560.0,-0.03541635687907106,-0.02303412069221416,0.982528890858143,-0.11240574715678807,0.008410370149634156,-0.01955331024038403
1580.0,0.0677000261601661,-0.024673800594210295,1.0118019341825044,-0.042803497420609835,0.023255329188301956,0.00936964055116325
1600.0,-0.048303453799072596,-0.0029717783816443394,0.9908652141577866,0.09444930175261448,0.01162740124833381,-0.002157137891466012
1620.0,0.01393522588078338,0.02346372680838879,0.9708816091850321,0.16083727145107088,0.010379741882316159,-0.004947395255462348
1640.0,-0.06500051227371637,-0.005973778326225213,0.9947212116604908,0.22805661407313074,-0.014317180560366433,0.01452434156975547
1660.0,-0.09188701542770693,-0.016617245658113483,0.9980634890312774,0.11364900242555825,-0.007620136302390182,-0.014763615472189531
1680.0,0.03090748640296422,0.028897515195468838,0.9907364750743547,0.011763757140904737,-0.0018265634135482532,-0.002162620496729036
1700.0,-0.03263670079841565,-0.028564627972287884,0.9981966952074902,-0.08228513239629726,-0.00052005508888208,-0.02040431267851556
1720.0,-0.06288791448507754,-0.007643576680377163,0.993734569627282,-0.16771063323623617,-0.007705065096661962,-0.0010802015280306488
1740.0,-0.03207645509517883,-0.02710877851549537,0.9997078615732917,-0.22080564831850777,-0.012751658538788256,0.001882657274561117
1760.0,-0.07116541166356243,-0.0038189253788955798,0.9919211773648928,-0.10967185677120384,-0.010700414911488296,0.0011181534411562992
1780.0,-0.09092543658723598,-0.010042150563906694,1.0119583936595737,-0.028558857953782744,-0.006314220637581654,0.011531946896673584
1800.0,-0.03970861905796154,-0.007884088427850522,0.9851185444684804,0.09699277399740239,0.015779156242326862,0.006928271776162469
1820.0,0.026774325792972627,0.0097850600919783,1.0007595501350495,0.21411950359680132,-0.005667150117724654,-0.015306154141654999
1840.0,-0.03168626924362786,-0.04004090364925121,1.018381273642227,0.18191117089972106,0.00072315204922672,0.0038387687996760808
1860.0,0.026655943238482683,0.00651129594777265,1.015578021363164,0.1587150516251637,0.009982869135249385,0.0007655320625922119
1880.0,0.059847679823404235,-0.01413257141988007,0.9659647777606067,0.0762155156686622,-0.020409546472685332,-0.01891920621620422
1900.0,-0.10593738428814846,-0.02639100017808111,0.9911447791092024,-0.07739330946883224,0.004438845035546429,0.005128289311303613
1920.0,-0.01939621335317851,-0.0007148146928677237,1.0131186527747233,-0.190917240153126,-0.015478211833489526,0.003140248777796902
1940.0,-0.05918488459702348,-0.01506964276215699,0.985489244644341,-0.175653619641316,0.010463371650807378,-0.004568646057105189
1960.0,-0.13880038084923155,-0.008674246192937723,1.0085212477604402,-0.11023812981533057,0.0014132717675550258,0.009125548933352847
1980.0,0.03002558194588821,0.005558486639248216,0.986962250210056,0.002255609108241942,-0.014540014404895524,0.0018808320199190083
