timestamp,accX,accY,accZ,gyrX,gyrY,gyrZ
0,0.035108371364679966,0.4984528112428488,1.0343990232401716,-0.005288712579961511,0.41761618071177947,0.0027819216821731193
20,0.18104254984637763,0.5877302797429325,0.9972114632201119,0.09295265539587504,0.37267791330385186,0.0022126443996555467
40,0.1512098209465499,0.5317402970711541,0.998311362545602,0.16993725597569753,0.4031624705249154,0.002721656513893581
60,0.3624739732986432,0.5138563003356654,0.9079934718680811,0.2207462805822603,0.34752983065265775,0.010914889422237497
80,0.3506229841077436,0.43155597205170204,1.0405617926134036,0.2538133196655063,0.2757413790532808,0.0024212256714428912
100,0.4250461512210382,0.455636628209061,0.987117883949143,0.34735327992204496,0.2386334962886763,-0.0086289507248681
120,0.6281978105693562,0.2818789849577588,0.9645203712370133,0.3948311212557262,0.16051254235977244,-0.009664149357232421
140,0.5255318203579291,0.12716267261537162,1.0018497830487343,0.4039488838474434,0.08752496904806277,-0.011170857017201097
160,0.6677563257740732,0.04370978222181765,0.9667844194796388,0.3695497732477592,0.01749463389305266,0.005370312394178653
180,0.6171674440795636,-0.12180177023992882,1.0129894541279565,0.39421839048695845,-0.06148286510947044,-0.011396047688760298
200,0.6315305178135643,-0.25149868101814377,0.9816522852148808,0.409689285859122,-0.12459778173176723,-0.014144340805295431
220,0.4142358145497541,-0.3133837192678164,0.9682944588685181,0.34190400854528413,-0.2019007202768937,0.008964894447164784
240,0.4468677694558588,-0.37228686508695646,0.9756551118105566,0.3096457579832001,-0.2565394327391096,0.00594841069798403
260,0.37254880906675136,-0.4516108141181089,1.0101402431407605,0.25951808387180914,-0.3147022853269188,-0.0034380225430551115
280,0.306681750511032,-0.5938879462795268,1.0053906577096128,0.1988214161867501,-0.3614252556773277,-0.02168201849670868
300,0.09957541389022849,-0.5050086935356985,0.9916154763789525,0.12443246384230193,-0.38281349590629626,0.0012963048857194198
320,0.04660184861446347,-0.5523062652135362,1.0391251109216666,0.0753757261702811,-0.3787528132019645,0.006597637881382602
340,-0.10650375190409625,-0.6659617490305135,1.0105975148635786,-0.06705624990478755,-0.41152818188464474,0.005399503643889876
360,-0.09427479848691399,-0.582151127223519,0.9599692049418634,-0.1485410461701872,-0.36957224509684267,-0.007034022031003999
380,-0.3301317283211479,-0.486788636628459,0.9690537868190543,-0.1854326971149735,-0.37084315205550183,0.015990099749878472
400,-0.40346158096232587,-0.4870069681056685,1.0124499785323655,-0.2462749026719476,-0.2967897108456221,0.004063126589706515
420,-0.36371418701831904,-0.36932388076700745,1.004931885965397,-0.2960221561636423,-0.23809885250186222,0.014928810221830114
440,-0.5697954282708511,-0.23109258135256278,0.9752751836345187,-0.35760445212157244,-0.19522225972050689,0.002755468041686601
460,-0.5075983070460868,-0.2695816837369092,0.9763271050252691,-0.3345784837487029,-0.1563774712073045,-0.002008812514892019
480,-0.5649788848582283,-0.09728588683199321,0.9831696051863865,-0.40674793757884903,-0.08799238765512067,-0.0033881489919710883
500,-0.586435175710908,0.0896604601633799,0.9987718430551354,-0.36821980228812456,0.024074607880636097,-0.00013428139907061703
520,-0.6032813025782152,0.174558331614964,0.9899525859152135,-0.390068189563994,0.11585297981477272,0.004577298009982781
540,-0.553328924314349,0.24977902699302398,0.976824796704327,-0.3784413063608213,0.17581639675344019,0.0017042533498875538
560,-0.4352746438145662,0.3269838756345958,1.0295176048433832,-0.33487738838290976,0.21575467288834935,-0.006056261474689301
580,-0.4274920044830763,0.419650960002653,0.9729092011786598,-0.25211564083127164,0.2757892678832381,-0.006327284297617644
600,-0.3282671146377857,0.5447695032065086,0.9667937296622281,-0.2009404438747296,0.34378617011543633,-0.006981478564603524
620,-0.22593462609920753,0.5420493053808999,1.0235783135445247,-0.1242150518327968,0.37356307867755467,0.020340690487298294
640,-0.06150437805967096,0.6501486475129068,1.0209234439350876,-0.07771232351664337,0.4086722172264692,-0.01340618927144973
660,0.026516519044907608,0.6507945652614157,1.0127690369209064,0.04682605129270019,0.40757505910058434,0.004184274314692626
680,0.08794786141114161,0.5267961036286994,0.9920927760408242,0.08026586446399174,0.3830867516547592,-0.0025792111180436327
700,0.19154217974745744,0.5422941434727728,0.9958357956598031,0.1590803787197237,0.36522860666170764,0.00249164931468731
720,0.34100859514013243,0.48120843066148755,0.9419318278040111,0.22612355474042978,0.33633300240967917,0.003968234869247967
740,0.3588311425150333,0.4881125065259589,1.0220459455767086,0.2873817236488164,0.3165261623717649,0.008480033358107132
760,0.42987733701613734,0.28283243519879375,0.9755644438930755,0.33432593676323535,0.1909990741027695,0.009639006388267132
780,0.6532252119188353,0.26128154035383444,1.0155001810759863,0.3501253859901453,0.19543775295586657,-0.000910609074639517
800,0.5967777173078948,0.11418861668946063,1.0036061383620316,0.38616234468237065,0.11684120212864949,0.02303877636325778
820,0.6474011623081369,-0.07223474703992548,1.005282306385047,0.3914553377186042,0.03648892277156894,0.013342983656514847
840,0.6672504304480101,-0.10673132200816283,1.0104496973232258,0.4109871109072916,-0.05149443696365731,0.0037910539931382227
860,0.5760273691610501,-0.17730778172789288,1.0265553862018562,0.3975333703244375,-0.11804945166392147,-0.006888728637713261
880,0.3720636317029479,-0.31694164544753367,1.0640170063040748,0.3592338006962734,-0.2016629832127054,-0.0030717624645071667
900,0.45419901095015686,-0.4444214056997613,1.0199699854754514,0.3198883166318964,-0.2429134134957816,-0.001556748530053258
920,0.3182007144807748,-0.45658751352781496,0.9799536800888913,0.22840699901244238,-0.2822382253958308,0.004110426569365453
940,0.2515161497165571,-0.6141317356294813,0.9712109407538962,0.15109955919735021,-0.33874386821701236,-0.011485651809923725
960,0.16789619434658185,-0.5538619714087284,0.9878399489879225,0.1277915708250176,-0.41186689141658545,-0.0011848458634359739
980,0.11889697385025066,-0.571493824308707,1.017191335073165,0.03645984583375398,-0.38864990365433616,-0.009880736740683583
1000,-0.147942932338825,-0.6256434939492027,1.031248257336831,-0.03610568066740878,-0.37494123697590787,-0.006001958010411491
1020,-0.10094058129280727,-0.5799164101713512,1.0065249697058496,-0.10517949965535513,-0.4042621763401106,-0.007066594264277371
1040,-0.2817095255537807,-0.5235914936192916,1.0078861932600987,-0.19665516132394337,-0.3607264103184712,0.020776889246482494
1060,-0.3220630304963405,-0.4269859507475815,0.9958932697744869,-0.19717943625719964,-0.32183451197762686,-0.0003677549432983772
1080,-0.5290530158621406,-0.374250649954719,1.0050064390883537,-0.28104431517988543,-0.2448285615541252,0.004680806020999205
1100,-0.6342385056168456,-0.3058117035284828,1.0030027090677092,-0.3817731538371665,-0.15733480130767735,0.007865677416279481
1120,-0.49675578642816526,-0.17206333237717208,1.056426800727043,-0.39869103150123375,-0.12160496543921036,-0.019425957399593487
1140,-0.61047250025347,-0.11883783335381617,0.9424492486666662,-0.4265968331521143,-0.06306847512227504,0.012092904802315022
1160,-0.5737823393405368,0.0780968082540326,1.0708126442502204,-0.41193695563745014,0.012113082014694382,-0.011103644499363644
1180,-0.5607802436029452,0.13187849310358576,1.0358982511624992,-0.3950214031822961,0.07434603548456874,0.00789235786096773
1200,-0.6112992511353919,0.3770666430502536,1.026086492974935,-0.3700120329735492,0.1477608759701253,0.0075466463305094295
1220,-0.5137887195803095,0.3307532328290632,0.9752135654132708,-0.3064897387707997,0.24721226992601686,-0.006932078958782395
1240,-0.4241241373036424,0.41206816219946313,1.080059438343581,-0.2584170383797838,0.29265139292494696,-0.001686889529288462
1260,-0.26419262256123754,0.46066948473261493,0.99493462419623,-0.20983197519753327,0.3421838431599687,0.006970430884555261
1280,-0.24978401157775668,0.5474410004364656,1.0900821919534958,-0.17047590747342958,0.3901342634643324,-9.217805789439083e-05
1300,-0.08402360674157891,0.6018046315779425,0.9759763164472572,-0.06163387363782508,0.3923736772900484,-0.004657089898975835
1320,-0.040808979985135344,0.5744990778579926,1.0239096107980639,0.017503964305409753,0.39896360298671607,0.0048885535673031215
1340,0.10955823898764847,0.5655127512240677,1.0463544946114287,0.05878551487475481,0.4026996226552266,-0.012034889990248168
1360,0.24399351581941708,0.6493474525691515,0.969840623103932,0.16086178128740153,0.37617114283436903,0.011874005885551717
1380,0.3540857949393182,0.532379028061128,1.0171952446630328,0.21844803453712394,0.32500135650949585,0.004965489302051705
1400,0.3853813715708341,0.3447582424856649,0.9790247100907887,0.2700379989482119,0.2785514333384549,-0.009852454407849803
1420,0.5598235705363949,0.28365757433934863,1.0360115748434129,0.29169241254934164,0.25706577354038107,-0.0007458994974728718
1440,0.5338360807770506,0.2583525452636016,0.9985247520140395,0.39739250101546686,0.1611848886551369,0.0032361191598353108
1460,0.629821822584461,0.06635158044997501,1.006625235245766,0.3718141589999804,0.13101236437731006,-0.012916776471163842
1480,0.6797250977750848,0.06169034404770839,1.0287316902248762,0.3961539087733907,0.015205367965760337,-0.008013854145791094
1500,0.5649597844811507,-0.05540364375418064,1.0035252732907007,0.37737152679791724,-0.09463525910312498,0.013499540134550887
1520,0.6168905203835173,-0.13845060049149285,0.926030520300281,0.39533476345664287,-0.14119326839520702,0.02615989730381937
1540,0.48189767638885395,-0.24921895046498618,1.0120909392970245,0.36505251027755037,-0.18190872710660896,-0.008210271644955386
1560,0.5159079924768446,-0.3578682319437111,1.0107096080127151,0.2863741057874351,-0.2192674711241842,-0.00010622543696985485
1580,0.36955187877873275,-0.357617843278898,1.0007984867198665,0.25978516092715975,-0.30982737559483525,0.00039512371118145074
1600,0.28601283687996193,-0.5419981249224584,0.9919338683354113,0.21278840844163166,-0.3498680942126618,-0.008274349321444089
1620,0.229165240678619,-0.5934744258221666,1.0462498332884407,0.13168674713373793,-0.4192931665328491,-0.012287691144248663
1640,0.02254191956170134,-0.5602650565655786,1.0130074325170175,0.03200094871004298,-0.4015938229890999,0.004300824409138607
1660,-0.08228202408140034,-0.5863660959380088,1.0151672690895475,-0.004693723706645801,-0.38718305386495755,0.017554191489538434
1680,-0.07111392545400876,-0.5744231226059087,0.9317089979016736,-0.1024968105325674,-0.4103858484269635,0.006990272664590012
1700,-0.2703527684782397,-0.5260984828454488,0.9827540190147243,-0.1934069175913419,-0.35684095205197,0.010505936555267903
1720,-0.3309876740945654,-0.391050729681366,1.0226122627239338,-0.23479994816567226,-0.34795296873584786,-0.018838738933127222
1740,-0.4616669596545379,-0.41777744704698244,0.977484831639968,-0.2868445021357962,-0.2937637833183159,-0.0032430437990860527
1760,-0.5207724915520757,-0.3000076177978956,0.9779505496319021,-0.32856853158870086,-0.24129370368262507,-0.006897300621176608
1780,-0.5295014580850952,-0.26875392582009444,1.0142718844587026,-0.3965058361433547,-0.12972938264998618,-0.017183559020072854
1800,-0.6579680392648929,-0.14565968072824323,1.0467829853824049,-0.4016224770871002,-0.07447118810914816,0.019680266862900996
1820,-0.6131991179802943,-0.04398659792040385,1.0000155125655348,-0.42043324411049576,0.027571611405832662,-0.0040448342975601785
1840,-0.6584544257610099,0.1669061222250972,1.0374547872047881,-0.39162098808304385,0.09706297157615243,0.017252994211121593
1860,-0.5257521033491916,0.25629369477206887,1.0063829388825773,-0.36735508547981854,0.18931381063750816,0.006038499905431836
1880,-0.49228956695752896,0.38708168011775546,1.011276392783605,-0.2961545793043006,0.2474571376493999,0.006212658069654231
1900,-0.41786032925887334,0.4762043264190306,0.9780592978169904,-0.2890720309650231,0.273097435686766,0.015719262364495137
1920,-0.32172626302521434,0.5076224358262735,1.0071419568795381,-0.22001154783336213,0.35631453187874484,0.002814208523969773
1940,-0.2766619394363035,0.6128971708335387,1.0137177458045485,-0.19675692984956042,0.37281133657018206,0.006118376690462462
1960,-0.09936425992351623,0.5835105678682005,1.0298427564319639,-0.08003364069961189,0.4206232024111437,0.009284104741072895
1980,0.08940854944119486,0.5763922002768527,0.9764174275676968,-0.02842675952479986,0.423389304948595,-0.011184040988101818
