timestamp,accX,accY,accZ,gyrX,gyrY,gyrZ
0,-0.023350638234405047,0.6389680091276515,0.9880134982996889,0.008163304266949724,0.39666058130344833,0.011977375937074763
20,0.10360329218408924,0.500529159808385,0.9782466553542303,0.09361220773727641,0.37443225644138295,0.00929058606107665
40,0.22856370960756547,0.5396153182254759,0.9727875909404776,0.14681766457362458,0.36134958504517345,-0.0015949674758133474
60,0.3096753332379027,0.4557886709591299,0.9133455425254998,0.2188604657837589,0.31364486819193005,-0.00748815016697671
80,0.4758789870200773,0.44641637851331345,0.9768449575354858,0.2862632561946802,0.2702335844108586,0.01056237753491801
100,0.5200884871551807,0.31167747292232256,0.9737754974677594,0.34061458596780936,0.22972719440423095,-0.0034554967906691076
120,0.5018071662495442,0.20477297103347247,0.9735876989941504,0.4058745899501064,0.1789784233220056,-0.0016940233382207526
140,0.631094492647223,0.1001418136689482,0.9563191815785489,0.37738354705019106,0.09005837395583585,0.008884289359084507
160,0.5721953522072245,-0.017108804301250974,1.028133893913316,0.41962995511885054,0.003834746471014885,-0.00563128021429952
180,0.6226785122708488,-0.11261736873075387,0.9746749922209363,0.4248728645520441,-0.02585413315739005,0.005827771913794084
200,0.6022432273476391,-0.2535231441190034,0.9905728143856686,0.39500126204028607,-0.1238091843570984,0.015380156271119445
220,0.4356689369762995,-0.25323753474770017,1.0050141445492216,0.3409537796487018,-0.18156961322120663,-0.0019594916817483625
240,0.4174078555606692,-0.28858891350328003,0.927338968486716,0.29867492833893045,-0.2772299807228233,0.0014936887438562836
260,0.46489134015716344,-0.447217452560028,0.9732548787112872,0.2496304482776918,-0.26236534318820304,-0.005190227224552698
280,0.30238290078204805,-0.5745467968144775,1.024685277555227,0.19318375598210513,-0.35513076600252164,-0.004989322034691155
300,0.23160127436250133,-0.5847269713454842,0.9810178669488956,0.13229626271951922,-0.386167908685332,0.011685103205764553
320,0.05111501771160688,-0.5750039750248478,1.0274949696177202,0.028634346830157417,-0.4127433719172702,-0.009980016916807161
340,-0.1493207729220371,-0.5583963004142081,1.0142590553889286,-0.07116515514771529,-0.38564861209957996,0.009815406835539222
360,-0.10139489315971868,-0.5909620333949238,0.973732443152771,-0.07650392075848633,-0.399432550428508,-0.004661407032736169
380,-0.31544545087485903,-0.5277886601241452,0.9987633537309903,-0.13869540842323486,-0.31709741361591737,-0.012272558639456149
400,-0.32735094545636856,-0.5306287388680935,0.96102644929786,-0.27417084335880987,-0.3064432613999496,0.007163754009656916
420,-0.4435600456604183,-0.3828280527898468,1.001804798437381,-0.29912028211269864,-0.2515791614324606,0.02157228419079258
440,-0.5057082207502286,-0.25156547545101343,0.9720417465972558,-0.34528815799865714,-0.23050877348601884,-0.020188024095615983
460,-0.6157805729613097,-0.26237316158146473,1.0248358874407806,-0.3733172476893343,-0.13073245853458862,0.00011606516383040342
480,-0.6176555081865863,-0.04952273694702132,0.9831281573007852,-0.3865969060228533,-0.05121400779452534,0.017765974754313005
500,-0.5696703222117403,0.0636893089214489,0.9790584800679112,-0.41636144020288235,0.052872403056761455,-0.0011984383231555306
520,-0.5862730815213942,0.1056440455990851,0.975178372074703,-0.3750806145368139,0.10266698243424913,-0.004558472586492566
540,-0.6691917803264849,0.21631079745441065,1.0086057335932188,-0.3621567807303085,0.12329512761652697,0.0026114070333571678
560,-0.5461220533338471,0.26920802318026515,1.031474302823577,-0.3434238396069457,0.19852465908895467,0.0020261343523568886
580,-0.51228900488877,0.4556025036684763,0.9945448118785113,-0.2981737775664277,0.31404431256975573,-0.004939190831802161
600,-0.32779657782490046,0.44711218852625406,1.0207757133983495,-0.21864777187972376,0.34352156806591555,-0.021788937574552577
620,-0.2247455613717669,0.5286451901108318,0.9609879999310469,-0.1996912676645027,0.3881116756369605,-0.010818872234894052
640,-0.18459983450120304,0.6001537903579464,1.018171452159778,-0.08354467405768012,0.36942191046435535,-0.018251564172148328
660,0.05090710191467928,0.5720348843679032,0.9774414201011716,0.029066827770278872,0.37000783531080383,0.0035646244166494864
680,0.014578215426118132,0.643204692180513,0.9748907557887233,0.07413327889536073,0.3945502229159606,0.0019540951563824975
700,0.21824287455632482,0.5470080179017005,1.023974888499652,0.13197009207834104,0.42217841397853234,-0.007199923695401796
720,0.29370406706934815,0.5306261854354835,1.016567090603415,0.21299442419207645,0.3464781388154999,-0.0013632808904158905
740,0.4842607781185368,0.4485699405233383,0.9645628461903621,0.2947012273272988,0.26531768528086896,-0.0034856643679945488
760,0.4394773610251195,0.3926179632910782,1.0204197155865633,0.33061105049968825,0.22597381904004538,0.0011412608853956653
780,0.5719960495453192,0.30624029397275426,0.972744664642887,0.32305346145800307,0.15776950272868678,0.008896348833458325
800,0.5936354166423319,0.18417191815687725,0.9566535616836995,0.37279472106511224,0.1162808085446825,0.010817878409343007
820,0.5636210736518072,0.033802267277822595,1.0179707262725757,0.4069462581432681,0.04680632153460354,0.008041311450826833
840,0.5570128776570049,-0.06334877793698057,1.024072269759781,0.3893569227350096,-0.05713095083330714,0.002506861256659875
860,0.5912455744855087,-0.22615990173204129,1.0033741536756557,0.36590578271059804,-0.0752649603287206,-0.0029327240306356262
880,0.42822928611137046,-0.35076821575229955,1.0301533418130648,0.31680786482254675,-0.20969884915147663,-0.006027809409509899
900,0.39809080270904335,-0.4146717972181943,1.0239367704113078,0.31553890608148527,-0.24812152416464722,-0.014992097777001875
920,0.42950790954762613,-0.397198997470899,0.9835135969992161,0.24314781526293122,-0.3057717504172642,0.01148129680150127
940,0.3237573144115134,-0.5879136457253822,0.9931859815150063,0.22500343367741044,-0.3645046423771367,-0.0016553978803816117
960,0.2646054809528953,-0.5188260751472052,1.028300708642716,0.1359457641119229,-0.41677700803295525,-0.0052875991943628345
980,0.0984856111450701,-0.6183925379723504,0.964958852153663,0.04465278668736231,-0.40642253682902507,0.009755706541193293
1000,-0.09680936469385046,-0.5653453773361078,1.016154668002074,-0.06310890143795729,-0.3924053941394141,0.009615118908017618
1020,-0.13988196742451364,-0.6197480615594241,0.9866278859975891,-0.11775413041221476,-0.3674219491563002,-0.0020727931029421616
1040,-0.29400496622625977,-0.48203063652049455,1.0444424870429851,-0.17038607453496582,-0.358566786813055,-0.01721362876741572
1060,-0.35572132428529396,-0.5138660408975305,1.0105775128622305,-0.21876533534956238,-0.33656688261732226,-0.016200442875301962
1080,-0.5294921538670574,-0.42224720292685275,0.9299002431818338,-0.30438247554832176,-0.2736408138614156,0.0013763209282097255
1100,-0.6146039712897161,-0.32264627374328025,0.9486400681730351,-0.33203281489023045,-0.19879219148135588,-0.0010775245222662269
1120,-0.6438729519683483,-0.22105820443859744,0.9547504924516066,-0.339954725783398,-0.13329006784548045,0.0003596821037489925
1140,-0.5575787019911861,-0.024732867882555853,0.9759706677229353,-0.3984826599822722,-0.013754299240202841,-0.01842916555752405
1160,-0.5910148226473834,0.022257853601195036,1.0168440825069531,-0.37886438548329127,0.016138864672708638,0.022562567152382588
1180,-0.6245119114113123,0.12865592086887226,1.0483023567777965,-0.37746283652217355,0.09753172769996582,-0.00705977999284631
1200,-0.561413559107573,0.2245507966626546,0.9440380387191354,-0.36615894391580855,0.15844739605114777,-0.007091373546728254
1220,-0.4648345694898618,0.3734310117158016,0.9943818351955879,-0.31453312613617446,0.23572763180684186,0.0006337380954941674
1240,-0.46920327706350334,0.3871185079978452,0.9941656536201365,-0.3201748748467301,0.3136522461293935,0.0035948011680275323
1260,-0.3052678520851668,0.5326059679189844,0.9429569208809199,-0.19591787273802652,0.2904188819073999,0.0008724268132686137
1280,-0.20662259541744324,0.5765682281698137,1.1070413610625836,-0.16246814375445015,0.38339513070371417,0.005998050797645086
1300,-0.12667114019330805,0.5945896066101485,0.9967548824251641,-0.0827881963862903,0.41736149695767083,0.02130005939050543
1320,0.040676655002705994,0.5721485727455238,0.9508456592840144,-0.020612650998715912,0.37261281971757654,0.0008996497506225967
1340,0.07646570451244422,0.576806623186847,0.9707105170382027,0.0786400633116395,0.37954759549822853,-0.0062299731581765905
1360,0.28284196227522074,0.5705573862918267,1.0298158288646024,0.1276522692763432,0.3797542566104702,-0.018568747181979258
1380,0.2738523919370109,0.5513568583209003,0.9372235817684238,0.21521019662455992,0.29206993806126635,-0.002703120354383663
1400,0.32117832007002056,0.4739615874390637,1.0197624601411137,0.273934360773969,0.2501101039486827,-0.02516786652909246
1420,0.5445442770904059,0.4257628655505948,0.9637860447332023,0.3212319184938464,0.24122902404588709,0.005225591730499203
1440,0.5566141353597157,0.2221468467317645,1.0120318368695445,0.3615384810527219,0.131643192194993,0.0065290035850315824
1460,0.6092310801060017,0.1766290376880263,0.9762510734132286,0.39844116638440413,0.07841660796132793,-0.00326155403064606
1480,0.5178735444916905,-0.03128689082851742,0.9879719709572364,0.44115550296325556,0.0303986569435507,0.01442992932223304
1500,0.587339676920145,-0.1236394204283541,1.011071025504056,0.4111197841568376,-0.058069132021554164,-0.003938496833384593
1520,0.5728650530788001,-0.2383731855438207,0.9791946703901312,0.40921494526545876,-0.1513380798948379,-0.006001013142394487
1540,0.4656601409357967,-0.3708605043773998,1.00822174808547,0.32146938181931745,-0.23116631716087843,-0.006778903148692129
1560,0.35858000804717427,-0.35034186138025813,1.0583207449170944,0.2968810308509727,-0.25811294516347316,-0.01743327336830998
1580,0.3620657142451688,-0.3661771885154046,1.0499117054004636,0.2433745706530378,-0.32458055817335757,0.006224472928074465
1600,0.14235811344708818,-0.614992407247639,0.9814579133638397,0.19530532050060206,-0.329637041660431,-0.0030699933025265837
1620,0.23187387355217653,-0.66763782078026,0.9263008370202784,0.10786596773536929,-0.3720401852435117,0.001595721194441343
1640,-0.03788979740427477,-0.5505000789246222,0.9828939538399166,0.035879794619294296,-0.42778299005934234,-0.0026764581392955096
1660,-0.10776956310504979,-0.5337480538381194,1.0337508081013378,-0.02963270330679245,-0.38683044480117507,0.006701576544051366
1680,-0.13645476381702681,-0.5880898603848392,0.9958719772735081,-0.12707222915220817,-0.40112978127266163,0.004073449284044799
1700,-0.3613339256257111,-0.49776767237246117,0.9787891139966607,-0.18481717097142916,-0.3540961071854393,0.006468654731921774
1720,-0.4762915774424368,-0.4751081581549428,1.0011097276674867,-0.2273240264644581,-0.28764407394333397,0.006513105209976476
1740,-0.4779142877286669,-0.4155654078055242,0.9937615380381215,-0.31540744338830395,-0.24936933814780213,0.01293271655732929
1760,-0.5140494787647093,-0.24002956860024147,1.0537898159507026,-0.3426384977496875,-0.22498694092510285,0.006155151625093019
1780,-0.5649733325593421,-0.11086464600925469,1.0224692368963397,-0.37123356169746274,-0.1213693525593299,-0.00722790121150029
1800,-0.5362472454438327,-0.10130623076060712,0.9771601517434163,-0.4136470005190671,-0.02178376553177013,-0.0005434682176474839
1820,-0.6217519646347143,0.07940718014607573,0.9954738209912699,-0.4053849957234811,0.007055789914565191,0.0026930953080312597
1840,-0.5112173366631042,0.13788402848351927,1.055228090440938,-0.4126153751858957,0.08868124820582958,0.005541974474960335
1860,-0.628714946442989,0.20689719979920065,0.9783184945476956,-0.34723279270490687,0.1576758558942226,-0.0026122112146494078
1880,-0.47652994235193613,0.3299466959325473,1.0098901474619142,-0.31013968171295003,0.21586203060692577,-0.0019506166223581057
1900,-0.3837056966043222,0.408461519832669,1.015891609146932,-0.28036412275900047,0.309035073211559,-0.0027552587695448194
1920,-0.30930686392358026,0.45778154080711436,1.0244505121548273,-0.21436791936659605,0.3548734555271798,0.002349029023041527
1940,-0.27052608330944156,0.5592780041238973,1.0145557646287457,-0.1452888655339913,0.3827299986570043,0.014155504413734048
1960,-0.0798438462587597,0.5998704704569915,1.0078767786730898,-0.083849769870637,0.37644059431805843,-0.0036017825608032467
1980,0.020658639247972326,0.6968209864197403,1.0312738705646762,0.04195219256462748,0.4030426977931728,-0.007788739438566605
