timestamp,accX,accY,accZ,gyrX,gyrY,gyrZ
0,-0.007668394212583242,0.6195917507614098,0.9949591593086066,0.0297583498359345,0.3927024784886252,-0.0034595089061883024
20,0.12291796281922236,0.5985033165493724,0.993064225591674,0.09301950965273076,0.4158973037254381,-0.0003238789806352017
40,0.18397157472627235,0.5906352093324733,1.0032868031563102,0.12771336670186176,0.36710418207343953,0.007685418368913406
60,0.390380443647806,0.4756018085519854,0.9593715029599669,0.2175130227993806,0.3384429037969362,-0.012121343792309119
80,0.4029820006692853,0.4589036289404277,1.0249203662828459,0.30109905012893273,0.31049886828109863,-0.005359038209148793
100,0.4380095949756388,0.3227656553484182,0.9827104068586117,0.3218597402018512,0.2607337632970438,-0.012914480474339829
120,0.5356352775238935,0.29432908897531124,1.0226863187221809,0.3696976882318038,0.17052948283883473,0.0028373714290721003
140,0.5475191134352235,0.18971425437985373,0.9527898835964997,0.3969181029858422,0.07645678376147705,-0.012599222542044413
160,0.5265833849357843,0.007254511203542566,0.9725320069738986,0.399972195052,0.04044058076470104,-0.0242699155565504
180,0.6523763396359198,-0.15347689975741907,1.0204860391461312,0.3931597357444539,-0.07655522864291638,0.0007572585266670283
200,0.6024938366140271,-0.2624788313747924,0.9822169502993002,0.3663665306630026,-0.1412737211851901,-0.017874161112196495
220,0.5297528947223907,-0.25089619043754274,1.0690222740480768,0.36141112180798973,-0.1876455926691753,0.0077293362715716305
240,0.3815222298066766,-0.35274421937394373,0.9769710632688068,0.2970359004040618,-0.24000471240746432,-0.008094468196249188
260,0.35450703673532613,-0.4503705483255038,0.9631625280354035,0.22568549766419757,-0.3228252039902495,-0.004209862915951692
280,0.22957874730224484,-0.5176509961388701,0.9331646811688263,0.17682305766287643,-0.3295858246532798,-0.0002193775537973875
300,0.16457476196466084,-0.5078215428612549,0.975201146880907,0.12366850730156287,-0.39690847020441944,-0.013159774539032066
320,0.12097973961730435,-0.5070521372940592,1.0133873198881385,0.07152127298604663,-0.3760350253053186,-0.015797685362660213
340,-0.09049011981397073,-0.6553214235523658,1.0094529435663542,-0.0758584335447029,-0.3675810266561262,-0.014940732219999715
360,-0.018032594541579183,-0.6385902523173842,0.9988099439742621,-0.0927768202414527,-0.35101592992833275,0.002426788675000643
380,-0.2434014595180169,-0.45093927030364117,0.9898005341202344,-0.16050371606119007,-0.36671479060575657,-0.01294978028586716
400,-0.31542837062173923,-0.5501622923241216,0.9982907792338894,-0.2529324079464591,-0.28295237676132357,-0.003025696546725863
420,-0.4831541857827381,-0.4282223931112187,0.9888827651782485,-0.2446612016465127,-0.2210083541781838,-0.0017676379886701738
440,-0.5398993276581276,-0.30195906196348754,0.9710043635264959,-0.3245758331543825,-0.1863380276225989,-0.0018484396660222299
460,-0.6126186867704636,-0.2292524370699689,1.005882833955365,-0.39425872168913917,-0.12226555198660388,-0.003076711494400736
480,-0.6697430218339547,-0.057028114706014106,0.9582116088477458,-0.34699910008018375,-0.08493492619159862,-0.00940489822574398
500,-0.6069103812132107,0.04199759390725695,1.0251971047298378,-0.4163363645367834,0.0014530209735464927,-0.003195811198466276
520,-0.532932577403897,0.10337033804989643,0.973034988484456,-0.39951454591147484,0.08570497066193447,0.009272632621516652
540,-0.44637209590021815,0.261840187127797,1.0229754921289758,-0.38442888049012985,0.18266123488709451,-0.0031672787534906734
560,-0.453421320760907,0.3461943807805912,1.0263772842432526,-0.33453376288911607,0.22810453531227112,-0.0014864409105445242
580,-0.4401781544892156,0.516152819662256,1.0210491295310884,-0.27431764371441014,0.28977204615296515,-0.003002038224392209
600,-0.32897675441828444,0.5044284045641404,1.018436693596993,-0.2127566331989563,0.35969890585131736,0.010641158188637725
620,-0.1646929333272523,0.6132042367135131,0.944160018822934,-0.12865025550898346,0.3351180373770977,-0.01589818848544388
640,-0.11319260790872313,0.5751877541187903,0.996419131078643,-0.056107134603803205,0.3917062193102756,0.011494634571095666
660,0.042631409328754574,0.4893536208488719,0.9750355821888631,-0.0056715605415372785,0.3940915604130409,0.0019261480620319951
680,0.06841732991349374,0.5592069719524095,0.9767360969009031,0.10553854013557504,0.3828894780661024,0.004067355430015529
700,0.2824634971714471,0.5634360100527342,0.9709789556135388,0.14758650180672706,0.37785935782944197,-0.011686217641354843
720,0.3309406537672845,0.5277154659896302,0.9622963104261241,0.2169695352792776,0.30318221107507815,0.005030210577773891
740,0.40575164383853396,0.4333416427400835,0.9662699269587754,0.26773475540858827,0.2808405070963838,0.016347239401862376
760,0.5721124252032856,0.36100895399538063,1.0017123722693801,0.3047056351376867,0.2699941432252435,0.0005956994348720118
780,0.54424760093998,0.2606828710117223,1.0011793096052914,0.3460034529606428,0.1507044462456295,-0.02133686850648409
800,0.6368928488327851,0.1283165286742413,1.0581756913002742,0.3868647066883485,0.0881922871126098,-0.013697450255812918
820,0.643312181421311,0.028419806337515216,1.0212331412483258,0.43936585591601884,0.037826355268081854,-0.014071316839497307
840,0.5569899695173258,-0.13019811984667168,0.9672696219732627,0.3730003727727823,-0.043058898003338605,-0.0014112839113231879
860,0.5850006411382427,-0.2249146423428811,1.0134691971852041,0.4049938568488293,-0.08936069707975244,-0.0011854747500981528
880,0.5014022141607073,-0.25969563216161,0.9918342878266883,0.35259119745835965,-0.20338166050299591,0.017322305312378588
900,0.3661153958916524,-0.4417089368758741,1.0279981577661117,0.32105379096909314,-0.2656669578931754,-0.00029753531522919044
920,0.3391358621414114,-0.4782930143711204,0.9516802822571723,0.27808868731272346,-0.3290697963442875,0.0012424890167446558
940,0.34772865371799094,-0.6169111626545256,0.9618725148302946,0.19169668947971757,-0.3309789213320345,0.00739974249103245
960,0.13916995405694538,-0.58736994204459,1.0034329993011446,0.09423603572225286,-0.384440175750289,0.0106004536257481
980,0.14382587204266714,-0.5023758731235978,1.0192047036146747,0.033625797066460704,-0.3854132887558294,0.0030422974483790477
1000,-0.1292957523808052,-0.6720624407596564,0.9863787401970283,-0.03246778660352332,-0.3657322973061223,-0.012799722909414439
1020,-0.19051760627925562,-0.6087718961507564,1.022473805856076,-0.06864502422579391,-0.3549731064677114,-0.0016176118033638526
1040,-0.30059051709482887,-0.5725112600914052,1.0426899268386132,-0.19405782175019912,-0.30193330608211877,0.012982599487752442
1060,-0.3971479884000206,-0.38879643352671356,0.9626722994374635,-0.24671567870662492,-0.29380875638350445,0.0003791616034147541
1080,-0.47103126763157876,-0.42177786990733845,1.037203557256982,-0.2796310293266301,-0.2601250133185343,-0.0067438648688689165
1100,-0.5822053858818126,-0.36902269000416105,0.9769222561931588,-0.36110114071502675,-0.21545958917473595,0.00013218885312121342
1120,-0.5581322520192878,-0.17802934460550104,1.0155363810310483,-0.3676810461650074,-0.1346436697465873,0.005852814986027204
1140,-0.5469307818299869,-0.014152126146151842,0.9943240336947549,-0.3883670488412732,-0.08226661046943679,0.007149073467269121
1160,-0.5196919908305928,-0.0638501648343619,0.9993678198734253,-0.38620225267412434,0.03040433439364957,0.016774410210854355
1180,-0.6951760255832801,0.22270317949256174,1.0055266684924435,-0.37458265195345897,0.12745426415432548,-0.003769027937877966
1200,-0.6262060581778713,0.21815086451791238,0.9885496923661505,-0.354171039234278,0.1541108270222421,-0.007970700946554303
1220,-0.5068770193940108,0.3425244037383177,0.9439434972789598,-0.29839676507762897,0.20209342372817043,-0.002833351698989758
1240,-0.3406966539762194,0.44335990322238367,1.0260447954469232,-0.224800598713511,0.2917774355560936,0.01386530162823734
1260,-0.39983126982066286,0.49243353610042867,1.0192145556668348,-0.22201249493937614,0.3337215617477982,-0.01195188108248741
1280,-0.2666020702440289,0.5177640707935203,1.0515313501741304,-0.11559706089510124,0.38728747534015806,-0.021930121277670644
1300,-0.1943950205779604,0.5307617447612305,1.0063007821520156,-0.030912529189975974,0.36833701753755255,0.004364142216732216
1320,-0.07209672635092555,0.7231892735088156,0.9963820093251918,-0.017675437619769897,0.3972482620013282,0.0031911822290065566
1340,0.08745468603933962,0.5259980783752175,1.0083717412891695,0.10410803531424412,0.36134150083858163,-0.001041599641440136
1360,0.24463336033218847,0.5965727906386653,0.971995887932945,0.1412184190803154,0.3253456546478511,-0.008259513287678521
1380,0.32493425878567467,0.5581849009927726,1.0228715198770253,0.22958549592868063,0.3469422985779216,-0.003540935672473286
1400,0.47741172048272873,0.5173248389677856,0.9969077126299277,0.2649539648425928,0.27746382575367007,-0.006178032503760941
1420,0.4585236146372783,0.30837773005399854,1.0280718257392694,0.32533539065147365,0.25135164592820697,-0.010552282904012602
1440,0.5384378762532396,0.22811477105991768,0.9876850882325161,0.36071961810498127,0.13393856145838925,-0.004050388267792859
1460,0.6073947572217603,0.09979687742285454,0.974799534830623,0.38783200035441745,0.08885084342224829,-0.008294287078227219
1480,0.5552641510160692,0.02123822400506293,0.9605415815504923,0.3813672902680517,0.010656240084599172,-0.005063981442714799
1500,0.46199030840748423,-0.17608866748297014,0.9612016960463207,0.39445832058826386,-0.0643741804034566,-0.010978267010467805
1520,0.6086378043908366,-0.1656216120574917,1.0217980689131088,0.3666889353703158,-0.10933631604855489,0.010463430463959715
1540,0.4746957104948543,-0.2997435357368017,0.9908293815353457,0.33673104878021554,-0.19768283678288595,0.001151752725793277
1560,0.4230214443621575,-0.4053230065092303,0.9883282424083801,0.2850893173059329,-0.24184835396137236,-0.0006069379394149876
1580,0.32010232018484763,-0.5115177411861183,1.012486141989707,0.2400625311379448,-0.33249007642905914,0.004066303032091518
1600,0.24530450831266937,-0.5274586819702674,1.0578104851075116,0.1912542562577783,-0.3489386049670081,-0.004074005452182854
1620,0.2835285215096893,-0.6228011666045289,0.9826916741960992,0.10977818007966841,-0.35970465884771674,0.005036231862412235
1640,0.014483352676841657,-0.6033900831804818,0.978271261046432,0.017739464805817354,-0.3980146610565044,-0.01124778457287515
1660,-0.04343462135042644,-0.6193925629206565,0.9889251924855671,-0.06611478863744877,-0.37677308107682383,-0.01317594429391062
1680,-0.10208969400700754,-0.6486692645403371,1.0336617812886306,-0.0874459854847638,-0.37395267107618124,-0.0011481143778609582
1700,-0.1977466372200284,-0.45097239398964395,1.0803023751624372,-0.16299261372460944,-0.3437615640236877,-0.00470469993298454
1720,-0.44282449211950775,-0.48950400333995026,0.9856832350990128,-0.25067392469932465,-0.31806383687456274,-0.005122973349399106
1740,-0.5487789248770024,-0.44323940273065005,1.0015258468365147,-0.27919681219588666,-0.2761536412556447,0.008892701187725364
1760,-0.5164082734470914,-0.2771729565055315,0.9910911564768854,-0.3393260475305338,-0.24323911372167867,0.004633094915445172
1780,-0.5602499844504881,-0.212658656600964,0.9825023380889435,-0.3555355623279077,-0.13610422390884333,0.0030282504380209625
1800,-0.5606113755255844,-0.03151470170626196,0.9705070474306663,-0.4012339496745669,-0.07642759599003195,-0.010407605104364327
1820,-0.6727253738793374,-0.04394602060323233,1.021379273844039,-0.4179335758094418,0.04404661002458732,0.004416353598692457
1840,-0.5510094979292044,0.12572931711350852,0.9766019022510537,-0.39180646964927907,0.0882652965720486,-0.021789489794467622
1860,-0.5754213807995843,0.18126252833011314,0.978292463975534,-0.3692386871181954,0.13040668317326554,-0.0070836819903744635
1880,-0.5240692300850527,0.44063772954443675,0.9732307778641673,-0.28991913296572136,0.2357837250279235,-0.01097663162300861
1900,-0.48679307812324707,0.4312563236098843,0.9966028397858083,-0.2819639973629061,0.31685645335525087,0.013269381075841554
1920,-0.325241089784531,0.41518256746762305,1.016331893115192,-0.20109136240252662,0.342107784964927,0.007840585798939353
1940,-0.21397724521962722,0.6406502880348418,1.0071377365520693,-0.16355962957115022,0.3547550136968653,-0.01272463292085744
1960,-0.04233853625326134,0.6099286583528943,1.042583039531359,-0.0724707395825882,0.3854285896858928,0.013956016834518912
1980,-0.06193563735550785,0.6143846711169161,1.0082571001023284,-0.0007180929275591173,0.38837140994532343,3.3468375022100375e-05
