timestamp,accX,accY,accZ,gyrX,gyrY,gyrZ
0,0.10069225835676705,0.5804208015734669,0.9609755078198685,-0.008668791464731854,0.3940785224933678,-0.0013134103770688639
20,0.0003287924180486457,0.5385846188035175,0.9240101252885472,0.08059602486811744,0.41658829431582384,0.0026364374930405495
40,0.20510979905608412,0.5680626704374927,0.9654443214420895,0.18079888896807092,0.3856757029946519,-0.0028037511646840188
60,0.32706382752089613,0.41917294483875844,0.9931128369156199,0.22487846977467682,0.3865689223848934,0.002636507162474116
80,0.29230402236002256,0.5419760251450313,0.9982707293056569,0.24816855523403059,0.32109515155469065,0.010137756571237616
100,0.5937940986122291,0.32355037193977326,0.9606992191083811,0.32728891469377064,0.2668179941758818,0.0027981604480449454
120,0.6037403224415988,0.1604189995074094,1.0516143653943324,0.3691007651301468,0.1629094909970107,0.009675218781841336
140,0.6387427490320228,0.21055878706786146,0.9996500185433008,0.3589068002805565,0.13689903500161887,-0.007790705125008286
160,0.5025183956689725,0.020880989977631673,0.9904902669709232,0.40543133047817637,-0.0029105999495033785,0.00401539938661874
180,0.545238758237531,-0.13423520544554063,0.9903250386088731,0.3871296731771452,-0.05588408375291034,-0.005951216346318483
200,0.5437521567673593,-0.19654747917929294,1.051118708174473,0.3691677209508056,-0.13290418650374983,-0.00045062721525480237
220,0.4754405590064297,-0.26004106033934277,0.9978076822495002,0.33403242190787497,-0.22471440612890994,-0.017785716351118617
240,0.495691963188444,-0.31860387423071734,0.9573531286240607,0.2804926933721046,-0.2685922485895165,-0.002397948213384664
260,0.23058131735420173,-0.502284292454932,1.0005229969818887,0.2556817532512046,-0.28741042722758486,-0.0065009859946888885
280,0.30276371370923727,-0.535649928299601,1.0368763557683114,0.17554672986704772,-0.32788370620879714,-0.0010396045071259792
300,0.19568553953529846,-0.5351941669036355,1.0210122022769852,0.08342197214207783,-0.4047764607507696,-9.657501444021776e-05
320,0.09082953715874942,-0.6453527087939757,1.0337872721172419,0.03387142576973556,-0.39906520682901325,-0.014933216290520778
340,-0.054146274788820364,-0.5884533363728889,1.005400697332297,-0.03964361353500696,-0.40883886828401195,0.002244644056321943
360,-0.10309870469163741,-0.5577972909441117,0.9672168771367827,-0.09655489803493827,-0.39072068779492725,-0.006614629809644635
380,-0.23951430731462914,-0.5792215728301289,0.9909872972822676,-0.20863541049189493,-0.33987532694831957,0.01806007632377021
400,-0.3173455545278289,-0.3814374847181419,1.0160894955474726,-0.2608969216873822,-0.32879793184183254,0.0014106464474085507
420,-0.426847790297077,-0.31127134118066546,0.9699842082981752,-0.3184324147860344,-0.23836572071904688,0.003348646469108532
440,-0.5208562408229696,-0.2493452891286601,0.9957740252607854,-0.3630688824749912,-0.18019350107348944,-0.0022621999332235977
460,-0.5345227516135159,-0.19021667980838275,0.9930553532563484,-0.38322184537063236,-0.12864052271572604,0.009750695264016722
480,-0.5556678301945976,-0.11097233888096691,1.0147570391521175,-0.4114899908804101,-0.017338927403944653,0.00752691378623912
500,-0.6709829392232112,0.006611049072087639,1.0479374497441831,-0.38591159325659574,0.017944163127916152,-0.0019052689065326303
520,-0.6485933640987207,0.18109751209835415,0.9603490107572998,-0.39950726849496737,0.08788365249244678,-0.008938202206739184
540,-0.5456473392806903,0.2365918344776688,0.9832683564296554,-0.35355016947424994,0.1851667617695482,0.006206236652872624
560,-0.4549111162742995,0.3847622508230219,1.065129918151306,-0.3243248171910972,0.24169498256727237,0.005891549608085765
580,-0.3643368394096414,0.510958006937944,0.9665769143807921,-0.2668895620395196,0.281213550188488,0.010246907318694322
600,-0.2787422822599257,0.49031054090835235,0.9556760520190212,-0.196390748031531,0.3546933699094951,0.01757444249091201
620,-0.20928109202684334,0.6605382164432516,0.9962618666448348,-0.15882677627862787,0.3827932993439706,0.009702104149865574
640,-0.06756981430386516,0.543693430056767,1.0570365107919122,-0.06626840032053817,0.36983286972256046,0.0040380570442855816
660,-0.06295948161705119,0.5636020469728547,0.9838087365362843,-0.024552674546188653,0.4046443295765338,0.0015838531143971418
680,0.15172067572261616,0.6135003148001794,0.9337274106538891,0.0813744206476474,0.40727667199302325,-0.010958978634028043
700,0.2586109077533232,0.513848318964334,1.0042688221257927,0.1723241718715641,0.3730995838190686,0.010837980026605954
720,0.3674668450942078,0.5562464477526929,0.9892603670800179,0.23934727779847514,0.33893533208228543,0.003953497797734454
740,0.48262074375289593,0.3133826138832275,0.9929368437311507,0.2563232729849717,0.3325747206033096,-0.01529842944220443
760,0.4683478644825071,0.3637542686797251,1.016891262515711,0.35411613949426485,0.22267160853595974,0.0059172226799546765
780,0.593652786513147,0.3049213091788764,0.9752951710085267,0.34770510316255904,0.16647471491718252,-0.017175152780598855
800,0.5392193815984632,0.12510081918426535,0.9790526295962717,0.40301339505295347,0.07082742989372286,0.01480929580974737
820,0.542501126159576,0.09808042282941512,1.0145909578772727,0.37589963848748026,0.04373542963992434,0.013614688671407044
840,0.6502573363154291,-0.05736222938336012,0.9858399711355352,0.41043965801317217,-0.07746492928757948,0.006915319276877674
860,0.41986668039844266,-0.12538719810119353,1.0197232596103212,0.359007106781411,-0.15109289185015276,0.006626363996356871
880,0.5135755780459504,-0.3171038867526925,0.9785807327784586,0.36614352195466693,-0.20775020981142125,-0.0005264653851993347
900,0.43070180325429225,-0.41675559967581766,1.0031265508041967,0.3160108076695338,-0.2937315485498705,-0.009753969343002584
920,0.39469263906505136,-0.45648602294882745,1.0419663188056618,0.2649485150027652,-0.35295324275587797,0.010846679126480192
940,0.2756007000509741,-0.44231857383211926,1.0397197211363127,0.14959641863988982,-0.39944771219468117,0.02408109274279652
960,0.17843770015112137,-0.6299494877197017,1.011638646682143,0.12115320776701241,-0.3750301299074439,-0.003868089127177387
980,0.02995314878555165,-0.5816478455043677,0.969882975337761,0.016955423891353457,-0.3841619487435697,0.00047637375369454177
1000,-0.00475610886560484,-0.5912552233580378,1.023287776610219,-0.03099883026552838,-0.43391231210029463,0.01850559277631408
1020,-0.12304712920521477,-0.5573105229623811,0.987258934768293,-0.1087693399623658,-0.41926644828244874,-0.025585993159541402
1040,-0.3338079536097581,-0.4470599620772295,1.0178760588116647,-0.1748863540260617,-0.3562841670418483,0.015508711294602167
1060,-0.3512484638446851,-0.4835551112030322,1.0318524201566637,-0.2748420480184335,-0.3338393994219265,-0.007631333033461159
1080,-0.4523459889260757,-0.35791866362120556,0.9763887182988047,-0.2914721490408535,-0.24463465283743985,0.006721594528119266
1100,-0.5326723241943101,-0.3433224095151393,0.986614597311242,-0.34265566536772424,-0.19275444512697534,0.011404747169284937
1120,-0.5772930502456287,-0.17010270968666805,1.0249139443896211,-0.38001695218816306,-0.14590603896785695,0.016116509947540297
1140,-0.6542340879606394,-0.06443453111857911,1.0424390484355261,-0.3703488080932015,-0.08449133022249208,-0.0033816244621979463
1160,-0.5337611495344208,0.03709267501701083,0.9953590221658537,-0.3784361170436119,0.032097513329997246,0.006969575214323313
1180,-0.5521109316011057,0.036415366376395114,1.0282673646487002,-0.3933453200843987,0.09760851400376384,0.0009862832237808464
1200,-0.510580772193487,0.30759663828006045,0.9793580013132428,-0.3694725506904782,0.18327645682593843,-0.02342128291163789
1220,-0.5765318535245343,0.3279719042688931,1.0179478812776093,-0.30985246763336105,0.20775186796502698,0.007912223536632393
1240,-0.3987662945014572,0.3827973028294191,0.9880710734787201,-0.3023130136242668,0.27370023295189255,-0.007479424776144021
1260,-0.3194477192415154,0.45814237542856373,0.9914806190963796,-0.18973564631018178,0.35264043241268356,-0.0016972196890675376
1280,-0.1088863363431199,0.5102063143045311,1.0132451773375368,-0.15020321294952996,0.3797347268290306,-5.539537408650529e-05
1300,-0.11704376533938891,0.629770751210088,1.0037996057347571,-0.08850423015071535,0.3774330902982207,0.005724167473504479
1320,-0.08352741629192506,0.5735257640564843,1.0138836271898395,-0.025324697080460156,0.390176575394161,0.0018720136537627857
1340,0.1299411141656281,0.5387600517777439,1.0313910575712915,0.09250986227894657,0.3669808334586496,-0.016691433232937807
1360,0.28530843839694137,0.6056070113719068,1.0342744029450426,0.13008809228880286,0.39727938326091,-0.006089290672645778
1380,0.3427023456892862,0.4911563698445084,0.9793012902488968,0.21829882935241454,0.35211578988358055,-0.0031349292646790355
1400,0.4293392040800467,0.3747007405929833,0.9681404308677927,0.2791259905419978,0.2735825405439492,0.024351351865078294
1420,0.49462967248486156,0.3516037688548823,0.9778749429369116,0.34010604068119743,0.17397880590127668,-0.012438767988541141
1440,0.5900015357827674,0.2124061781491786,0.9834300267166916,0.34794679525648514,0.19641518860794957,0.00014480757642354155
1460,0.5389248751287159,0.06971107086454255,0.9939841482362587,0.36738150819966153,0.07046280663611237,0.012717372508274125
1480,0.5719719632720246,0.03258703653932128,0.9882188111539466,0.39800006199373217,0.03548749350394051,0.0023029378345413723
1500,0.5717270815497992,-0.10932496463471121,0.9799163292841808,0.37972619701093296,-0.07428474110916641,-0.004763447225770711
1520,0.5039440337260314,-0.24977125921027712,1.0814014529016043,0.36623620828509756,-0.16481771142537752,-0.0006865818146608105
1540,0.4974477598820331,-0.31596197463924586,0.9445504642288547,0.3301491720003928,-0.1976053328993161,-0.008127200922845437
1560,0.49725164963424584,-0.4033896197115856,1.017656042960431,0.33611228137059246,-0.23091794214932507,0.023806718565040234
1580,0.39145989570200346,-0.3633185725772494,0.9812291890710134,0.2267737947180129,-0.31852383457686834,0.006110153224505672
1600,0.29617832571045444,-0.5167241048672581,1.0046133830742763,0.1728298761001455,-0.3663617557885012,0.0003182917323816251
1620,0.16216532265581532,-0.6114726695974181,0.9621814144629258,0.11165409952228782,-0.3735059286649803,-0.004955668376426825
1640,0.07741877474544429,-0.6549039677954179,0.9643013377688596,0.06927975109107731,-0.41881236482020856,-0.0001334826873650805
1660,0.009030023381833008,-0.5384281928624942,0.962930264631349,-0.07041428989419263,-0.37862202536685674,0.013053073587891168
1680,-0.2270237040220926,-0.5370262547447546,0.9979349442716954,-0.10855436052015319,-0.3797525617776448,0.003969849303461716
1700,-0.3402581596567653,-0.5768826855383602,0.9959337758961775,-0.17740337714120794,-0.3494848038410258,-0.00587709289815884
1720,-0.4271842541223054,-0.428815428554527,1.0169390635579778,-0.21929522667496973,-0.28287162550129413,-0.018166108774432938
1740,-0.38596842633143713,-0.3927674782421253,0.9693253272423539,-0.29619032756345054,-0.24850552318650027,-0.013274189936316237
1760,-0.5134191303586475,-0.3114177391298693,1.0076685879503553,-0.3318028923640173,-0.18271375086620817,-0.015296491195635373
1780,-0.5722679532077137,-0.17560458535881462,0.9786265892815165,-0.4028276261192035,-0.13044817074325996,0.003081102220433292
1800,-0.6192106073019449,-0.03595798145216782,1.0008958089147493,-0.38273761278861157,-0.03595492079126805,0.0020369260613454765
1820,-0.6115318311836,-0.0613546909358017,1.0275255216907808,-0.4003486231898857,0.05353040673331766,0.0010522716032579412
1840,-0.47906330714871126,0.15290124311469322,1.0251453109781734,-0.40415728652202343,0.10212825826816341,0.01647288162199262
1860,-0.5447897000802921,0.2131906640274263,0.9838159498209176,-0.37843388284900836,0.16958986147170074,0.00959361278929388
1880,-0.517661587734439,0.3186105855273991,1.0325086409175352,-0.3465223535270868,0.25285608205147436,0.0006150057255860556
1900,-0.4612981196830638,0.4173358224927784,1.0338298796525436,-0.2531313126335319,0.28397803105652075,-0.00010999025093852177
1920,-0.28849870935305416,0.5618920285864492,1.0022558235596308,-0.1878350345631814,0.35375091839179723,-0.0022893524033806953
1940,-0.23785856299255037,0.59313563859541,1.0065364261049399,-0.14648506474028375,0.3672896927307473,0.0266222650995965
1960,-0.15394390404277813,0.5842959772923049,0.9726238915365942,-0.07109413985759525,0.37918103860688124,-0.00024278696088581548
1980,0.01980042427199653,0.5261251572076866,1.0145732097975375,0.009144662332080573,0.3886400166017966,-0.0014675218248521612
