timestamp,accX,accY,accZ,gyrX,gyrY,gyrZ
0,0.0173858203764773,0.6133643834242466,1.0328000969499953,-0.01868315392624154,0.41947598138684034,0.006637869649918295
20,0.07018323665907084,0.6396965725967395,1.0011087206458746,0.06199552200334293,0.3885376246128572,-0.00401075727346951
40,0.25735231545371307,0.5843982714340182,0.97699121535856,0.15833351589982653,0.3560788977833121,-0.0007829214585587155
60,0.3948682451122076,0.4955406599895538,0.9863701368004217,0.23041767078767778,0.36579306422704405,-0.010732586626997756
80,0.3895006280759495,0.4116118579981077,1.0031814501853018,0.26632522331781855,0.29439757274749606,-0.0005520568749724968
100,0.5318424492418405,0.309960362608419,1.0406695562106374,0.35082978646885116,0.21070001909018057,-3.411722264439269e-05
120,0.5380784163864981,0.19304316487742543,0.9541606820811132,0.38500675270054996,0.18026544971847547,0.004380728584254392
140,0.589413565734174,0.22949968213878036,1.0040334010092562,0.36722315862426697,0.09309242458513844,0.007970597291690841
160,0.6635378758335081,0.030417760418623985,1.0069790163633456,0.3982426645736436,0.01205681734664725,-0.0034041889138793696
180,0.5780245802061212,-0.04491993683931225,0.9762379173724545,0.3765663920332856,-0.04014421348803629,-0.006790692381741104
200,0.49041721107137654,-0.24157315449045763,1.0330460236276808,0.42087125701134787,-0.10915952856632542,-0.005726018180177266
220,0.4761598992906105,-0.37697555847076536,0.9960607611641547,0.3514957609413581,-0.19465152730122925,-0.0033379035312982564
240,0.5241339339210297,-0.445211371492407,1.038204367612561,0.28857250334936285,-0.24358749348683092,0.008410038730986946
260,0.3534665297112185,-0.5002890384083549,1.0314040827717659,0.22653733375223406,-0.3049698316766815,0.005797038212384853
280,0.21771216665131163,-0.4780362322680145,1.0013497747001745,0.16551267160348623,-0.3457820464833192,0.017529692992489767
300,0.2147919255189895,-0.6331863298840629,1.0467482586773453,0.10730563950357953,-0.39097632347295996,-0.004295319027851208
320,0.08418863702067467,-0.5933926562298407,0.9677942779565769,0.0841762055185047,-0.3920681208563389,0.0028433630518845945
340,-0.022502106860749237,-0.5950157257941341,0.9687556829198974,-0.03071024413846484,-0.4008317342246152,0.0059237060024264435
360,-0.17858904591079533,-0.5115342805399015,1.0092147937980465,-0.08177363611195093,-0.37220968756070694,-0.004192298988510353
380,-0.35135649957118154,-0.5689078440427404,1.0050030215909393,-0.20354385082382853,-0.3490838219573786,-0.012096832602250621
400,-0.3393890975569042,-0.4051121198209545,1.056487530733836,-0.22740741021093305,-0.2934569882817958,-0.0014823422499828643
420,-0.49527079359933285,-0.4239563952307067,0.9786209237577165,-0.23972370048098898,-0.23159194776476658,-0.01309804555850616
440,-0.4547264569658744,-0.3488086638848393,1.0231313875010526,-0.3456331889691027,-0.2099406611610748,-0.008541537283073943
460,-0.5837206800466134,-0.1888141374635874,0.9598504774987933,-0.39834568560238975,-0.13128587221186475,-0.004988767524876513
480,-0.6532094639723165,-0.1162514740277133,1.0478056857597102,-0.40977846470043633,-0.05754813526511998,0.009280248365539921
500,-0.557781843590088,0.039724517649129557,1.0049660508412748,-0.37739383768519463,0.01741846297573082,-0.001811594266606202
520,-0.5659792110834582,0.16474931290527256,0.9456740126016648,-0.40690914463420863,0.06630890897044978,0.016755183852149923
540,-0.5429443559415787,0.33511988154485356,0.9857934727270364,-0.36935915809566894,0.1784503283049959,0.0019258306432525427
560,-0.49601416947913074,0.3364915781189355,0.9598169375006301,-0.2866872287944216,0.27094336660980356,-0.010802674089172007
580,-0.5348061590490284,0.4427664814663227,0.9903026683076968,-0.27914927899686026,0.29870593664195105,0.003602144982002574
600,-0.2947526811109839,0.4118334092276575,0.9659786930032653,-0.1896070012651492,0.3018804918580822,0.02677449727199776
620,-0.167497931784925,0.6597071215773305,0.9791416190808662,-0.12678980896804715,0.37939759095201836,-0.0016769131920278838
640,-0.1331976308528636,0.6244472268266379,0.9846389623434434,-0.03034144532117313,0.3525672984369907,0.0130306610500279
660,0.07504989951233021,0.5511125448279761,1.0106526741540214,0.04065889810329914,0.4065157616269918,0.004201212283125096
680,0.15441761103636417,0.5526431650197338,1.030933839607442,0.09013698014002719,0.3774775389484953,0.008996994763842256
700,0.1689837272928564,0.5968363656464872,1.029337864650714,0.14979683110429926,0.39617185879387745,-0.004588755560244751
720,0.32963747712412195,0.4772292985393944,0.9995256446780375,0.20537167783223148,0.36049217293193575,-0.00442736366533114
740,0.36144626305245725,0.508463341920113,0.9961129363830962,0.29031770163434634,0.2778643335630109,-0.0027792951960178935
760,0.5023344895264451,0.3977119596357759,1.033708757206909,0.3279465836484917,0.21727121360203067,-0.0009720651723739625
780,0.47635244673195254,0.26931185753309606,1.0052751381905467,0.3505213664180946,0.18242607883566184,0.005953927795857075
800,0.5181093209183056,0.11811484252980084,0.9794553596808157,0.3807590787762777,0.09881007381201644,0.019724699460257362
820,0.6690188329023533,0.059060498793766875,0.9722571670234608,0.4192490915458985,0.017505521796873733,-0.003888498065070397
840,0.5697237549127373,-0.06589550708335343,0.9877234997295947,0.42854623394321256,-0.07137986843111402,0.0035698810172708284
860,0.6238356630199811,-0.2103958437899307,1.0180545302911337,0.37736132816296974,-0.10850195850397461,-0.01115105385232272
880,0.43605024026140415,-0.33415317771219544,1.0324752198150722,0.34785752076493104,-0.2257065858203473,-0.0033165670982103087
900,0.48081902992838665,-0.28076678966197,0.9581071754555804,0.2859951555208743,-0.2989434744753456,0.0050488107974080145
920,0.4240406742187821,-0.45630146929836585,1.0271522368822021,0.2608778371805587,-0.31980456602835733,-0.009344142603157603
940,0.3194754351905472,-0.55544881222411,1.0444698484118893,0.20440519344693703,-0.3623354945973701,0.001788055392440008
960,0.14055514570711378,-0.5224685569722788,0.9850273980899013,0.13110505575387854,-0.3833891985926094,-0.0034158892761199816
980,0.04471962575769352,-0.5712459405600593,1.0477865222926093,0.04590097656973385,-0.3680035937103246,0.00823351110641383
1000,-0.07526789636706432,-0.6080590387138101,1.0185239263597088,-0.08514123913398605,-0.34603600346686025,0.001023910582609386
1020,-0.1511061490714331,-0.6234886267302235,0.9917546363096866,-0.067091054045468,-0.3585690746103084,-0.013448791423855567
1040,-0.3716217389238981,-0.6286842604269568,1.00585232256555,-0.18561078847694934,-0.3616472858609092,0.010995696889453479
1060,-0.30010210131130743,-0.4474559672161498,0.9858668189617407,-0.22166401909281572,-0.3143208130679392,-0.0018013988599003842
1080,-0.5296156150819521,-0.39977239173602563,1.0138329707299263,-0.3045531983221541,-0.26599258404672477,0.003205396968787825
1100,-0.4970559500694485,-0.3076400566675937,0.9766647097928354,-0.36952137696774345,-0.2061912616985564,-0.005260253547725543
1120,-0.6110016307441006,-0.14203565201178475,1.0111212857137089,-0.3548493395068296,-0.15713252087891907,9.971552386361274e-05
1140,-0.6816650150602899,-0.12470608187935109,0.9386336636305866,-0.38699903943954095,-0.07499484004324572,-0.0057038896359696565
1160,-0.5761587587192668,0.04344876899815961,0.9856622478190051,-0.4189157311599085,0.022956426774477616,0.0065775864205196224
1180,-0.5267095507474764,0.18004185257901836,0.9917965410588212,-0.3937277816706407,0.07347645002823555,-0.020333119082353787
1200,-0.618570515369562,0.17672596593283224,0.9814924592409857,-0.3410996003299209,0.15026542085004818,0.006591769483213521
1220,-0.5834007993724334,0.27470226659888636,0.9648678973080916,-0.31367692697155425,0.24046023866947558,0.009230263419318777
1240,-0.350670680290429,0.4526665894087789,1.045754159741826,-0.28305970618726145,0.27931701291934946,0.005370477644370825
1260,-0.3701941938343965,0.4400483121249878,1.0608142504754279,-0.2011072715024275,0.3407545711205205,0.007585115482424167
1280,-0.17784698101045482,0.5871533921876722,1.04103787797332,-0.14336783687389795,0.3604637462561161,0.005884597990511539
1300,-0.10538818798580224,0.5219373065843431,1.0193609123707503,-0.05613781674898002,0.35917731217324816,0.0007181378375733218
1320,-0.029031735682063402,0.6406998290773026,1.0429595349655738,-0.013425455656665202,0.4203043492710558,-0.00034085198529201804
1340,0.07968068408327206,0.502023648285616,1.035969173339683,0.10962288857986625,0.3916149652594601,0.00015394127624269045
1360,0.24153316186967036,0.5828272277551894,1.0218015017543016,0.12397480525780252,0.3871796426743125,0.0018381923391252123
1380,0.29707989666068524,0.4671745599980246,0.9822744869651828,0.2356727133347065,0.33479240484584694,0.020892191283898267
1400,0.41620758901499866,0.30244128487977906,0.9993572781243679,0.2310699844234217,0.2958778154251776,-0.023244693951602995
1420,0.5813125372904794,0.3214097839749109,1.0518101303910719,0.298395792437775,0.2507392351046564,-0.012060190975264062
1440,0.5778079997265778,0.22629943148361586,0.9992918742253184,0.3710150196973295,0.1700472326420273,-0.0018075352008416709
1460,0.6342517224934199,0.19797364480013474,1.0186797798494447,0.36169756104653206,0.05726525298547595,0.008647908312702748
1480,0.6047949648978779,0.025732758689585602,0.9415592864563939,0.3940827181340858,0.029088325078867994,-0.0009644048518695159
1500,0.6313244582765556,-0.10606154173857749,0.9920228593875633,0.3707020742522098,-0.04635372543891352,0.014391906359488203
1520,0.5768581720307933,-0.20091056029608137,1.0290262579509941,0.3703405701549823,-0.12036139578553744,-0.001979086992271905
1540,0.43136940320283834,-0.31467441003011476,1.0027661024480283,0.31794108611498295,-0.21842241123673584,-0.007243688112900838
1560,0.4787668142680164,-0.38669629632467784,1.0232931430729164,0.2771242446880342,-0.2825996376359571,-0.00020197961660559154
1580,0.36686007882016797,-0.4578227564682783,1.0098067044490981,0.2318597693718397,-0.29955239079821705,-0.014148713806935899
1600,0.2614348015754347,-0.5546162335798379,0.982635645846191,0.18761303119782122,-0.36469707339650403,0.0014005426393991793
1620,0.15288926357579644,-0.5284684191763858,1.0080599371390744,0.09847225035961232,-0.3969914303459331,-0.002581222846526072
1640,0.10602669749179286,-0.5789249245991486,0.9983786601635384,0.06879515449235432,-0.41791726354768677,-0.023419648011337606
1660,0.017316411160102338,-0.5776953982001095,0.9906616962052172,-0.02745503098471832,-0.37047165855698777,-0.0007365480966763899
1680,-0.15296822116192654,-0.6269812750185415,0.993697073042217,-0.10566852824700068,-0.3818251652988506,0.007524505481365501
1700,-0.28592099570144014,-0.5376634716921804,1.007483377437857,-0.20917866778978178,-0.34418631969082186,0.003072190983198491
1720,-0.4151892443096174,-0.5091325565541548,1.0042899332611799,-0.27193600648552974,-0.30263033865456296,-0.012073681145880888
1740,-0.4247666863174585,-0.4200762469740318,0.9802111174388719,-0.3203290010135221,-0.2601858989958781,0.006019617521158074
1760,-0.6321854842866154,-0.27044417211700666,1.001465261606956,-0.3538545853852752,-0.19838503099441304,0.0061252985523646665
1780,-0.6359367916582062,-0.18843872883740848,1.0034408492417137,-0.3804333037396761,-0.1388122711270717,-0.008751447566545322
1800,-0.5535849934934625,-0.11554039290570053,0.9798591989498289,-0.45292747011780166,-0.07102791718929083,-0.0037508171044037075
1820,-0.5564288062053644,-0.027511831884756654,0.9945425110693572,-0.43687467339881364,0.04754860008124291,-0.005974254780337121
1840,-0.5660430768992594,0.10486838160902337,0.9911043762174376,-0.381652292613636,0.09612404138697281,0.012881366855667932
1860,-0.6254111477379194,0.2018431580406089,1.0486863236041655,-0.4139878998138069,0.16756853137911185,0.0069468280316376
1880,-0.45845069533934213,0.404623404754957,1.0231730285079144,-0.33332456724792686,0.2424887426685381,-0.01120245959703321
1900,-0.43038766372865084,0.4815016310276207,0.9933067004484554,-0.21158417990901712,0.3116440060809569,0.014663133986120307
1920,-0.3491454156986299,0.5162307103705188,1.0212850038564103,-0.20622362750159567,0.31252590669972224,0.009157814700646272
1940,-0.2208226072565905,0.53299304302161,1.0121988910667843,-0.16133328443579675,0.3759204011601802,-0.00736259040643256
1960,-0.10830962671934334,0.5573494060909511,0.9859822178981935,-0.09666586449099351,0.3863464827167941,-0.01895709875154504
1980,0.044204360040118656,0.47948916447906337,1.0364992679982767,-0.014340677454783433,0.3597634723521264,0.017179032310142332
