timestamp,accX,accY,accZ,gyrX,gyrY,gyrZ
0,0.09000711993170772,0.6373953800362305,1.0333260743523482,0.007222491086829694,0.41215751884406904,0.008593553357912597
20,0.13844268980342375,0.6164475196261934,0.95776782206705,0.10197167682348168,0.37361525207486,0.00870711867044988
40,0.18857285013960207,0.563757369240695,1.0234039914290585,0.19258478356554234,0.34851838201204843,-0.00862166524433796
60,0.3638906842047058,0.606192290955595,1.016416948613385,0.23586865087112954,0.3510276686424708,0.010427955079163522
80,0.3905410460124734,0.3756504267090309,1.0562245515991247,0.2811657042369221,0.30863128234179665,0.024889733001660776
100,0.4613324930978866,0.30201988633190674,0.963323883957576,0.3332846976190771,0.25241737545056575,-0.003376333069066884
120,0.5719129131484222,0.2880295368416081,1.039210344927165,0.38843478925688213,0.18708100060187732,0.0037891829394505303
140,0.6322544109540151,0.21827544718955338,1.006946511618003,0.3607436247376129,0.06839767612967289,0.005122262545334702
160,0.5547578180095257,-0.009522796158301428,0.9996648817178956,0.393073015223873,0.013375586483544045,0.006429969837412173
180,0.7019493974543157,-0.07285358049895059,0.9733247276721367,0.37652194618348106,-0.0771049641910344,-0.007934450317156113
200,0.6301923745099983,-0.2496682211741932,1.0477118320360368,0.36314899952285856,-0.09002204694075847,0.009582785833207512
220,0.62842016971752,-0.24450346164627107,0.9987470428365676,0.36014534381911845,-0.17277712169597226,-0.00020908920478548154
240,0.433511018522161,-0.4153669955055751,0.9935738683830373,0.2884556065795417,-0.2695585599389459,-0.009318766095206524
260,0.43367288851326846,-0.6148481829447352,1.010284387376223,0.26074307045102935,-0.3484375751387318,-0.009828901308632844
280,0.25538896461583155,-0.47290354136723733,1.0226514676879292,0.21043558319125674,-0.36693118808762526,-0.008043749512936089
300,0.24965497011024051,-0.4422431190545109,0.9863011102661958,0.07686229546965831,-0.376015229495149,-0.010506938777501888
320,0.11552213242917897,-0.5130183786747471,1.0224519738130637,0.02456676923288988,-0.3939388901725105,0.0053732983684392065
340,-0.09037767412745165,-0.5559019466983496,0.9850254859698051,-0.06044853368715501,-0.4001798485594031,-0.009393826407868155
360,-0.1636359378557958,-0.6458907763792163,1.0051499120782275,-0.08506236207098321,-0.39035173840856735,-0.010005834322089827
380,-0.29159695906703975,-0.48596464707910464,0.957157650818137,-0.17060065426284635,-0.33779294732576887,-0.0029838354499524032
400,-0.3990977235978046,-0.5024040480292186,0.9744921847245565,-0.22076792443028112,-0.34542700153803246,-0.0007275477920008617
420,-0.5263225689493798,-0.2843762428051815,0.9738343287111634,-0.2877794294399268,-0.2644440410363173,-0.008762448949658871
440,-0.4513995942940913,-0.3030498844657825,0.9833928268831762,-0.3343767254471937,-0.19738898274840735,0.001957345393759153
460,-0.5586834527473654,-0.32447794247774964,1.0253096755726916,-0.36958359696882837,-0.14250412532235893,0.00613986489698202
480,-0.6104740973167482,0.014011096689753602,0.9879218449787163,-0.3717478709673382,-0.06554445775629492,-0.0011486176157701111
500,-0.665902219124326,-0.03685511186294442,0.9932924914868652,-0.37373872226798244,0.03884793278311865,-0.014838995551961205
520,-0.5467142674757236,0.09015151887953834,0.9616659448434837,-0.36027135999167953,0.09883981971932575,-0.013160977194378675
540,-0.5350154589647449,0.2182131236287591,1.0190980490428336,-0.3390871720823021,0.18662371878671136,-0.0030812374814320827
560,-0.4526784796288965,0.34833958560743966,1.0296109091675814,-0.30831956207003863,0.2527776373840181,-0.00411042609141668
580,-0.41345657729669855,0.4751543906010503,0.9623989912053834,-0.25213287759165776,0.2733817477285744,-0.006884537341335742
600,-0.2226928290932078,0.5873912063138169,0.9510276559604106,-0.1934665492895175,0.35062594780945194,0.010592822341655775
620,-0.3181176159631891,0.5469133560364919,1.0427775655523697,-0.16523880990633705,0.40669069850226686,0.015500652454597062
640,-0.07195951220712743,0.5838604092177332,0.9761013197425873,-0.06959284912317677,0.3900842113153363,0.00956648266253908
660,-0.013479649342588955,0.6011327584465225,0.9988714089199661,-0.011149147641966789,0.4398183953467284,-0.028385622188463865
680,0.09167537587642609,0.598235283417295,1.0431169427652227,0.05365125100852629,0.4108879470029073,0.017433276618694045
700,0.2139971412463771,0.5419929710637418,1.023283424008995,0.13167971748397933,0.3614810394279663,0.010406811901276245
720,0.3392658736062983,0.5203805891369465,0.9908905813280261,0.20691222664683245,0.3096964650227651,0.017822222050889375
740,0.40024558497603746,0.4810751525972258,1.0306483791388257,0.2762499662714449,0.2911165697684447,-0.01565477810426772
760,0.4336755715923711,0.3596861284755606,0.952638131026403,0.2895228341078788,0.22162171516527696,0.029262970222627818
780,0.5055251977744425,0.1841966180054797,0.9706892112981309,0.32910014446046526,0.1730921920781045,0.019097470900082767
800,0.6616756967414391,0.16549006864306434,1.019776569501884,0.3955790924694397,0.08387017362486607,0.00014616275348918942
820,0.5795024169313268,-0.04905507982274193,0.9550340007885867,0.39997867709686347,0.02808001128215299,-0.002391373142672917
840,0.558531206799695,-0.17259331609037903,0.9790779956953717,0.40045789511065644,-0.0643045002111801,-0.009696557787936513
860,0.631967626576177,-0.25064592519059864,1.0372744096145803,0.40120841484436,-0.15681820610632524,0.001476587710932954
880,0.5221251738140871,-0.3082017924546572,1.0497122488440052,0.30418376429102445,-0.17198339997978335,-8.691531130373324e-05
900,0.43075477761246644,-0.3729376281569026,1.0089053249356035,0.2916352735753466,-0.2759931764392839,-0.0049465038536227815
920,0.3690018116350415,-0.46464920929367237,0.9724403761435871,0.2859975370093428,-0.2949239406570816,0.004393551429774978
940,0.35149983703775023,-0.48759871756409984,0.9142561791684523,0.1576822221623457,-0.3790592251323651,-9.564621917215025e-05
960,0.17611967642428847,-0.5404653117060797,1.0194608175822701,0.12563811083808252,-0.4215329446449089,0.007809757830076888
980,0.03249994397152908,-0.6059393185358533,0.9514663539726824,0.021960702805520732,-0.38002790095836214,-0.0013968135424681722
1000,-0.07624713542412836,-0.608005747175796,1.011282422489569,-0.027780215919051117,-0.3878555598852949,-0.007147007447198028
1020,-0.0913166874133077,-0.6595489088967021,1.0324837453277353,-0.12036051760379946,-0.4104943026701012,0.008101141398457048
1040,-0.1663510565750973,-0.5332462795986461,0.9560605379965703,-0.16117274039035365,-0.3840466133489142,-0.004007463002143766
1060,-0.40743071108487416,-0.45369169071061616,0.9918258784829829,-0.2319749776531912,-0.2980757913825383,0.0043847533075689815
1080,-0.4561070883377267,-0.4079329587498206,0.9855086253989942,-0.2943745586180786,-0.2610005790917114,0.018488751150121437
1100,-0.5675698161058627,-0.33099208372583644,1.0183067763199896,-0.32734530528887884,-0.18557867385772342,0.001672484720103749
1120,-0.5077643894571455,-0.1351083156967144,1.0287771806426715,-0.3863890309276541,-0.13341015680165297,0.012911522423859692
1140,-0.5862430241873434,-0.1005740189937058,1.0110547948783164,-0.3696121312594269,-0.054224816116674054,-0.0002807204210138662
1160,-0.6156016550486526,0.10943309089943254,1.0274965994992022,-0.4373578078761977,0.05270080071903657,-0.012535588794086292
1180,-0.5662485768042738,0.12270526121187697,1.0016853674626023,-0.37926824635824796,0.11203456850005837,-0.008078949765244892
1200,-0.5244886403088391,0.2629713307331464,1.035696264828325,-0.38304885456842014,0.16319476524573975,0.004088753516055189
1220,-0.4410551844699737,0.29468091412028147,1.0055662385788315,-0.32524294893021993,0.24094094523920306,0.0067082977149892295
1240,-0.3601751509243167,0.3676834156381838,0.9773612600755016,-0.2559342530696347,0.2573433863083652,0.009212462640671703
1260,-0.3338763972155381,0.5113804785613244,1.0312050271876065,-0.20455905171813818,0.31353257720963607,0.00965226176962322
1280,-0.2616579952003263,0.618417364392767,0.9742274979972654,-0.18618122782109692,0.35961173286370146,0.00894752635425085
1300,-0.03898755098572153,0.6040370528987623,0.9930256986185515,-0.08062352683119475,0.3955810539742259,0.009772491174517528
1320,-0.002202070424987894,0.5416810007236769,0.9958276963799703,0.026800848025510436,0.4112307698269361,-0.003052252199977248
1340,0.1464118977134395,0.5778382715975835,0.9940773266030867,0.07138117812522798,0.3728089446499073,-0.0002464155191926261
1360,0.26130616824224523,0.5813636442869503,1.0056801550504595,0.12599131914751865,0.38098690127499096,0.008370477108831226
1380,0.3070839088584232,0.42731122728577264,0.964531206142427,0.2066916711664344,0.3293151029370018,0.009552487881447039
1400,0.4139945600153189,0.310366516738739,0.9938690388452265,0.2735809663084795,0.27351543498885605,-0.009372925918822753
1420,0.4429532362594825,0.30213297436331255,1.0552142489843321,0.3194236723085843,0.2478361491690904,-0.018329629339344237
1440,0.44825942585952094,0.25985949744402576,0.9653940831879004,0.3896680794050789,0.18735872457800642,-0.02006731178114981
1460,0.5718802624166555,0.1439819135415303,0.9820669536660563,0.4131179538051997,0.11424600716820209,-0.003967429649632123
1480,0.6082609117773468,0.10372967943892802,1.0376327415116864,0.38501297600906925,0.01811583003800575,-0.004464794732031867
1500,0.559466555893443,-0.07276899663550919,0.9893772067857489,0.3692623190582417,-0.08519328533521871,0.011237917139672298
1520,0.46528210823623983,-0.2750702690546314,0.9939036868251215,0.37293956500590086,-0.10633462142870616,-0.011769766540995376
1540,0.5231107718797601,-0.22335669203338598,1.0000570312967314,0.3618009675017406,-0.20564444996285522,0.01301875336748238
1560,0.4242970721382287,-0.47216831821078764,1.030622008967572,0.29142859953205175,-0.26964924544381463,0.008290530704456157
1580,0.31344128272039995,-0.42034883727730643,0.9619368710632135,0.20021873857727682,-0.2814609256944446,0.013944498169567497
1600,0.17751935197971708,-0.4735746364634595,1.0371365331778188,0.19402604081395383,-0.34921287392789746,0.013035346158918555
1620,0.14035556221916004,-0.5559177186682605,1.015944251813016,0.11657850264439688,-0.40067659328956784,0.01359027021622129
1640,0.03238276600569917,-0.5932679702559922,1.0137884499907117,0.03655491654699351,-0.4011037096170066,-0.003233158627078563
1660,-0.010761853160300844,-0.6710555010184147,0.9604338772339354,-0.050239094870564,-0.41883321026001713,-0.019289893901261436
1680,-0.17150926921623044,-0.515099187620945,0.9698439261001354,-0.09634492956620187,-0.3577869696570964,-0.002411133605094138
1700,-0.2326498581649264,-0.5353270622634886,0.9414123001438279,-0.21366820718539242,-0.3873449397096786,0.0005052050855085985
1720,-0.34237962689645657,-0.4570857507704943,1.0323585100824844,-0.23861292755260644,-0.32607352300279485,-0.0017306467770950714
1740,-0.502700459332261,-0.34791642825504965,1.011220992175037,-0.31645286192542904,-0.2567169337414613,0.0020703156988457865
1760,-0.49981901061122175,-0.2885637218689063,1.029737671884451,-0.37211833886953655,-0.20948734295175125,0.010417802409377792
1780,-0.540975228558939,-0.21163229828165392,1.0146294070988242,-0.3792062377913175,-0.12650779519986277,0.00372100556987863
1800,-0.6212195869861472,-0.010226965127065515,0.9799269626300404,-0.37017216743941056,-0.06420311597437595,0.0016405566451331052
1820,-0.619992933762666,-0.010476818552282535,0.9860658860680851,-0.4280287457061308,0.02037562104506531,-0.0010518255354580212
1840,-0.5886624401974305,0.14259955807534241,0.9681807263262021,-0.3864091080204721,0.10206747147514872,0.007136206260338923
1860,-0.5030051176322136,0.22849857132533768,1.0474283914833027,-0.3960273270919769,0.14952031418249057,-0.01126489497939475
1880,-0.5243667416058708,0.3213950046376957,1.0059265545866527,-0.32495663458808477,0.22898556565891984,0.00971870720389302
1900,-0.453647284178248,0.41773056602594577,0.9645739220912997,-0.26222517733248024,0.31595410102616167,0.005166483037440789
1920,-0.3046316143334918,0.5096071159453559,0.9812268804338667,-0.23471934440704473,0.35712760792339826,0.005522603632891201
1940,-0.22910609253932523,0.639563848515508,0.9511736350621521,-0.15026705413800245,0.37280807151143097,0.0035526694429794305
1960,-0.06317835741332359,0.5799689796313943,1.0119357542272345,-0.06977500793942748,0.3905393788826248,-0.007677671321390553
1980,-0.036765070792226504,0.6427313351806798,0.988376940641831,-0.029556920918204634,0.4036746387214418,-0.0048598140334936485
