timestamp,accX,accY,accZ,gyrX,gyrY,gyrZ
0,-0.040781702599924065,0.5797476952430846,1.0038443461807047,-0.01981768754692665,0.4318318388873351,-0.013489874641855693
20,0.09111380042964,0.6106608472384705,1.0128617083491216,0.07514257673861578,0.3700075773040669,0.018718383228665366
40,0.2898216387252482,0.5561365982483357,1.011632438491316,0.13281877380629228,0.3858283228403292,-0.022497283199393363
60,0.30205310198655644,0.5217553237828719,0.9974104736981863,0.20978149815215563,0.3125233477517192,0.003965059965984243
80,0.49764212316613615,0.45696187189608073,1.0156258448869069,0.23084220411475276,0.3153270684289178,-0.004671866107713558
100,0.4876085187909689,0.3401921808299452,0.9861781602467011,0.3148644540136978,0.21728304381372684,0.009092005751972892
120,0.5906600566753772,0.2577305274092034,0.988279627539648,0.35992250851937435,0.19395475615340432,0.005071716820179369
140,0.5959656918058779,0.06320444380993381,1.0212054665156718,0.39233531527208304,0.08204906248245925,0.00637755691106814
160,0.580867181793485,0.0213046406616786,1.0373364190554082,0.415749798627706,-0.01572507587955156,-0.0010455734787794529
180,0.4954852190802664,-0.033420529050932915,1.0263877310289768,0.37531497366667943,-0.05063688601583893,-0.0043137300119895266
200,0.5863284166720503,-0.11948553609601989,1.0128994284160628,0.3599043399148453,-0.1267681931034526,-0.0019339910167477244
220,0.5739234158872621,-0.33479618533668715,1.0057114928187394,0.33978720308032895,-0.19473336279242637,0.015588784482599666
240,0.4984484920842228,-0.44701187331107983,1.0103911722233028,0.3120376629391839,-0.2716338981398854,0.009265508546159656
260,0.4029660019910295,-0.5073386186155833,0.9999417864437876,0.2821425168174183,-0.30516966162076226,-0.004084048857214781
280,0.2644697211456932,-0.5916064932496519,0.9431522295868833,0.18815188646675152,-0.34154182301199454,-0.015977157878268915
300,0.18326223358579677,-0.5942088952367535,0.9992835571052908,0.10018511702248423,-0.3777196840846567,0.011372523409166736
320,0.11972720728145414,-0.6470366055629329,0.963966968968818,0.028836351451167502,-0.39580448411509256,-0.0024977617988524935
340,-0.01900954235663179,-0.5904852626091733,0.9405737144068128,-0.06977510541351514,-0.4147233050133793,0.0024942604437179793
360,-0.24525989270350632,-0.6103194500958827,1.0555790281410216,-0.09377530459932998,-0.35225593749878903,0.014164399308159797
380,-0.22276959356534154,-0.5335437665521233,1.0154433148956288,-0.2077538205359622,-0.350023563522218,0.01329753436159622
400,-0.4046430583040078,-0.4853763104539734,0.9756414330078708,-0.22636514462431018,-0.3211512216032001,-0.0007155587791202648
420,-0.494611920379367,-0.3499975525797393,0.97533553642769,-0.28718128834877177,-0.271796754341536,0.0014005704107463701
440,-0.5505344744889392,-0.3196916600055424,0.9678539586846436,-0.32472952032662117,-0.19033936814836727,-0.009757399552460745
460,-0.5584162774578207,-0.2501824154500043,1.0035273963295448,-0.3615682674114765,-0.11866009714383112,0.008177657831127198
480,-0.603955336807152,-0.08586877769967198,0.959323164776099,-0.39800385422116796,-0.09827702517466809,-0.015676496962879705
500,-0.6010534041853145,-0.04611547075669481,1.013921008384514,-0.38266580812509143,0.022337994080809397,0.00628201418873252
520,-0.6708840891516918,0.1295806803075805,0.9759129643163964,-0.36977359791453523,0.07287509258053665,0.009945014964520967
540,-0.5396121698792733,0.25214568304430834,1.033218755973121,-0.3620197914344961,0.16926590690900312,0.015089117923538549
560,-0.4399699812561647,0.35798544154600037,0.9543176415326413,-0.28766886544640086,0.23891989303187766,0.010315368381527395
580,-0.4049755479245841,0.4707473882760047,0.9952552681951081,-0.27633778315810886,0.30395963635240014,0.015949693796819785
600,-0.2693020304832644,0.5577495729952578,0.9680375013389022,-0.23934709205828505,0.34483728221614846,0.0030333969264616893
620,-0.19660918763236077,0.5415193178177907,1.0025485212539322,-0.18428334376083952,0.375233278481243,-0.002618626412363001
640,-0.03435044008453397,0.5827137798075734,0.9748848951078165,-0.09295417306200424,0.4146169964924029,0.008047352273275129
660,-0.01700845607885912,0.5690951568583729,0.9886862328928769,0.006681826721462264,0.3837146609342332,-0.00015550526289379138
680,0.13052836105904383,0.49925955920524806,0.969700390997309,0.09847348082262841,0.3659381670937168,0.0073802561376874656
700,0.19321154503028504,0.6090337331152662,1.0164300542917601,0.15460746784728777,0.3582616647619057,0.0016698476764702367
720,0.37359741675141317,0.5067829272886903,1.0062951212245084,0.19958298038928549,0.32175273593615733,-0.0054851691430848224
740,0.4712538002439965,0.47602867373849245,0.9972098657992039,0.24438355216164165,0.26714356820446694,-0.0015620328552738547
760,0.5021005259582938,0.44279410399307656,0.9783878703386433,0.3209886332671939,0.212373391673764,0.0015119490929388763
780,0.5208667344888223,0.14103332308429525,0.9517440932684141,0.3719359248129402,0.16747505073166705,0.01804171866074581
800,0.6436777933786604,0.09570928312401275,0.9724347126664306,0.3863037335049427,0.09486485614496541,0.012456671102216717
820,0.6082931265129683,0.10114598618073938,1.0042171809113034,0.4189903307134382,-0.0026251387408228292,-0.0011568811799060308
840,0.5585162468052864,-0.12858570945706005,0.9946104127608941,0.3540977063003495,-0.06168929401700713,0.004185524290083893
860,0.6068885453239817,-0.19976653753588558,1.0367537263812245,0.3862757248651563,-0.10163041876903725,0.0038589573362252973
880,0.48212625032737655,-0.33487494748716384,0.9636326771551906,0.33990055284785076,-0.20759223883352007,0.03377636342243154
900,0.3547881620319748,-0.32838599816005193,1.0352594368294132,0.29227880270017936,-0.2620560628622626,-0.0084371576865262
920,0.44326328822191763,-0.558469286689658,1.0128635643970685,0.27323357316012614,-0.2967719081160957,-0.0004100498741969984
940,0.26904574440939416,-0.5979300362012021,1.0080076158902649,0.20080881308239984,-0.35342708362003106,0.010486176153024853
960,0.17791272883265685,-0.6457021615847534,0.9536394976022085,0.09102066061862477,-0.32348685752071876,0.006070422855256762
980,0.022725776127419425,-0.5805248472981837,0.979873691680777,0.04245770427766811,-0.41916171297401883,-0.01481334891043413
1000,-0.10578153060075338,-0.6159410470904415,0.9366558427380334,-0.05306534723025334,-0.409597401138675,-0.0001273223892046073
1020,-0.12329308162388852,-0.6183601012369214,1.0298507536874781,-0.09650644713794757,-0.37767380906973136,-0.0012960231721807591
1040,-0.2856262969620755,-0.4520002466133331,1.0254490847827797,-0.1794446807651661,-0.37587510508525335,-0.0085091876190015
1060,-0.49314631926030805,-0.4881154158621141,0.9930159847332652,-0.23921329225385873,-0.2925829902194987,-0.016607845656965433
1080,-0.4733416388873278,-0.4117850290150645,1.030268260812912,-0.2991703403687279,-0.23297172726999887,-0.005342809666544727
1100,-0.4653306496732711,-0.3758482188238812,1.0234617221553013,-0.33222573638445063,-0.19601035469161554,0.0006607397682483572
1120,-0.5854045255227339,-0.25575577139967276,0.9903041629661136,-0.400625507924015,-0.08656748117186666,-0.016517203256112247
1140,-0.6696501917373424,-0.10747031370334881,0.9807220727648804,-0.3790829585315989,-0.1385109357903202,1.5243881305678149e-05
1160,-0.6208261666398822,0.007080379442052264,1.0078105011667726,-0.3852538002045082,0.014153913118871691,0.0005319825927348306
1180,-0.6446141011024088,0.14558449920021485,1.0357857463225812,-0.3806823444949961,0.07123875480803854,0.0110931659216673
1200,-0.5021454195193353,0.27076485327133876,0.9929875994656152,-0.35106010646797126,0.16916119982263242,-0.018735713335436034
1220,-0.5314686682800868,0.3257492197350666,0.9688225504007262,-0.34013811858191084,0.2563666939279986,0.007732320222455123
1240,-0.318838315043354,0.47930718260864286,1.018627556120807,-0.27610784454968557,0.2733987679669548,-0.007971660545334986
1260,-0.30808882866283227,0.3667906696544502,0.9952539845914279,-0.2258338288324612,0.3434535883861235,0.002471027782162144
1280,-0.19129970396649068,0.6125811141447572,0.962227108624205,-0.09802762837255782,0.3507350465627882,0.006009475453121267
1300,-0.18741279734894234,0.5787021618897078,1.001319167420892,-0.07287697041121925,0.3798224738599706,0.015703684167800373
1320,-0.06996876068737623,0.5917688806122945,1.017433434006018,0.01418733976477048,0.4190870907596556,0.00180441960035071
1340,0.09786041150695395,0.6400100919250591,1.0062760859392874,0.08566570420445349,0.41408791474729534,0.008052579933160534
1360,0.16966626032805426,0.5286113548966722,1.0281158313693826,0.13844633933527922,0.34863144094804827,0.02005758620251993
1380,0.2584205472153658,0.4855451205850504,0.9771335248200446,0.2015323629030281,0.38358341508499977,-0.0008566681303756729
1400,0.3334507275580889,0.3564409103092438,0.9999077832994951,0.248329608095509,0.25583204116275243,0.02196839141185268
1420,0.5101435687241838,0.3107451160761327,1.0221273822589438,0.31573590229258186,0.2310401479452114,0.004743179407144721
1440,0.5456441289436861,0.3199019317977698,0.976658169797651,0.3262032019076149,0.13628800828090662,0.010385692191021083
1460,0.6217261431676085,0.14490224690510164,1.0273825257157438,0.3863046663799075,0.1328927856406747,0.00042996566883708005
1480,0.5691585560955176,0.020298797531279174,0.9534441120262838,0.38902637195993417,0.023006194266733213,-0.008560769842655955
1500,0.57521550211556,-0.10361797599122435,0.9573027945241495,0.42148741841699733,-0.07313677982242468,-0.0006563962081568797
1520,0.4833110132761221,-0.20812684629149636,1.0208414891436401,0.35713761518480014,-0.10552825105019961,-0.006746943556054599
1540,0.5371108296837354,-0.3414957091217445,0.9721369120862966,0.35322673785392517,-0.22183853505278042,-0.003981972296144806
1560,0.38384492890526406,-0.38955017225633415,0.9931067724447276,0.25571643385601844,-0.24458626528193347,-0.00017284912215557435
1580,0.39273456554156694,-0.5562075687349404,1.0153888818602643,0.28006828240414827,-0.3018155233339549,0.011722969433425925
1600,0.241856209379305,-0.5623148886466768,0.9843405815838205,0.20381585556416243,-0.33960548704189975,-0.012200918367448261
1620,0.17586066173353218,-0.616542916731793,0.984993128294594,0.121750523865913,-0.3731579693419432,0.01118579241232386
1640,0.0145281425376061,-0.595418334591737,0.9767209501921831,0.03001875303086836,-0.4251424058681661,-0.020657872663509137
1660,-0.012713392057454198,-0.5545578722164803,1.004696748364377,-0.04620053065700854,-0.4311713813004599,-0.004976007626589542
1680,-0.14019731077604844,-0.6207945182467125,0.988730413156224,-0.12367443231938242,-0.37888271737724377,0.0038229105664530005
1700,-0.25821331313815954,-0.5397443267367313,0.9592917299370561,-0.1553723212760981,-0.3525202586515477,0.015432067670313897
1720,-0.3349661881999561,-0.5242923769789513,0.9866748007013678,-0.2188438625946822,-0.31814326022788264,-0.005603916609224799
1740,-0.4489432928654435,-0.37281186594107574,0.9695998195801133,-0.29024304537539347,-0.26513333640445014,0.0002233230917193798
1760,-0.49877123830766007,-0.34220552207300314,1.0108440398165157,-0.38446008284012834,-0.19765019358565245,0.002492731082982146
1780,-0.6106486134153641,-0.24046598845249828,0.9960327313641025,-0.39072466249412163,-0.1396257449492413,-0.009410165928897016
1800,-0.5074872590413921,-0.0064659794511599256,1.011847144648271,-0.40349144832713446,-0.07626222175563407,0.0028971783673491474
1820,-0.5051320855674488,0.03567807447138589,0.9771484887219921,-0.37293173585860556,0.026050717966857578,-0.011662253463920446
1840,-0.6523498470702725,0.17120749887314815,1.0002692823809871,-0.3776014805996354,0.0982280406068483,0.01910387907496583
1860,-0.4670419091976336,0.2514738528563278,1.0114428343206263,-0.3284027323341368,0.17411019158296084,-0.010091684232800496
1880,-0.5341530286192597,0.3902980811522492,1.0690304385793583,-0.33207177891766276,0.20913629001603018,0.005325578600476093
1900,-0.4226017322279504,0.3890230036748099,1.0097955928943996,-0.2950773084002951,0.30901834617470736,0.015601842672649165
1920,-0.29241535598117946,0.5269651132856689,0.9757929500949386,-0.263846676695218,0.3508962167140588,0.003171703715219714
1940,-0.24006872264974757,0.5557937234942647,1.0520964319704964,-0.17620608703232307,0.3971914095270194,-0.008705058264998206
1960,-0.10034163288434687,0.5875447767940732,0.9693355741300308,-0.08846988858529861,0.41472693917371717,0.015951075639254846
1980,-0.026108210899481354,0.5849957703133944,1.0475460987883993,0.014970295785457286,0.4251417195735887,-0.005135401494425905
