timestamp,accX,accY,accZ,gyrX,gyrY,gyrZ
0,-0.03276392733981371,0.6513040181904186,0.9601392037794427,0.041223460082840065,0.44129826452754295,0.004853340583371488
20,0.07624959582573768,0.5404771772201948,0.9927644383869328,0.07888324835916656,0.3850645217562655,-0.011100908042364773
40,0.2001640530197421,0.5157159063015924,0.9856809008536901,0.14904405545872276,0.32600828494114686,0.0006462498131371368
60,0.3206103868875184,0.49293459336708334,0.989587692046015,0.22304201940114585,0.3498443346699566,-0.0044525301766541285
80,0.49299944475271135,0.3663538291672945,1.0353679952291073,0.2705220796265866,0.2611094441622557,0.0006988529594134334
100,0.5367906958504901,0.35943488299025195,1.011282703934303,0.3111337006403981,0.1947194656078183,0.003284418705325313
120,0.5863324000854537,0.30479091965238186,0.995148561509667,0.359097803575563,0.13667002033775622,-0.004080579043545865
140,0.54176646107666,0.16007728015554323,1.0075271850061938,0.3664555794011749,0.08612663876979201,-0.005921386511047268
160,0.5399752904331231,0.05982832253667772,0.9792532533424647,0.3762677899152457,0.008465372486269145,0.0032262963450077333
180,0.5728187708933294,-0.0712912637679797,1.0442648125535334,0.38194728016778196,-0.09491565678247488,0.013481246423227731
200,0.527275474269093,-0.2081911104903613,0.9959205038824647,0.3700872774498752,-0.12856953370059038,0.0021636043537375162
220,0.5679462339739257,-0.3658679610798291,1.003637196986397,0.34715401773949645,-0.18238311441105348,-0.012396925591727552
240,0.47147335854395594,-0.28718212657743,0.9982032600731782,0.3339815919451222,-0.19866631465481568,0.00980451646557082
260,0.3569895606884328,-0.5427534174400053,1.0051965131690235,0.2800483397303751,-0.29605127314990465,0.012053582728948162
280,0.2544107384709565,-0.5532306950816567,1.0034283041723284,0.183468908196,-0.34965297945141993,-0.021202671307880262
300,0.20643642510137922,-0.5724630881546344,1.0273011872427775,0.10001623889745721,-0.41092771710181125,-0.005101787293761906
320,0.11127448293047154,-0.6100667070266222,0.9705240250875068,0.084169749329817,-0.3869520893961449,-0.00014775888799764078
340,-0.12015751974405788,-0.5892267851401626,1.0114206664027774,-0.03086095752878133,-0.3984818295328253,-0.006866885394891057
360,-0.16252224238821997,-0.5343614010825096,0.9212884148387465,-0.09221527794835607,-0.38394021883931595,0.0015185335748732357
380,-0.2265256953902947,-0.6940376298610995,0.9890561117087462,-0.19917836359379087,-0.3235907695722784,0.014176023463941456
400,-0.4209385461934925,-0.45288444024319485,0.9915231785413505,-0.2196138226451799,-0.29875613055041345,0.01984152717854606
420,-0.40527673655451524,-0.2943891795021018,0.9834274308881717,-0.30724099013086603,-0.2363148780766167,-0.0039283999094832925
440,-0.4494666688490879,-0.3449743225837685,0.9917650717341269,-0.33541481909498866,-0.21052752226423185,0.00768350123164602
460,-0.4940734843730319,-0.15693442831908014,0.9845085168033569,-0.3571414919086141,-0.11670769154299909,0.012533990741948262
480,-0.6330922509937406,-0.0278433289905365,0.9876645533566492,-0.38529189817582915,-0.02719317035429823,0.0006826738864730901
500,-0.5703578660157013,0.06921210196158006,1.031080820169145,-0.38755014390258496,0.03703627083708777,0.00602975355977339
520,-0.5797086929990631,0.21658916404628265,0.9702259101037581,-0.42154784847427546,0.08593695314000588,-0.0020984547312587814
540,-0.5429894029825184,0.22298915333638336,1.0369096836479779,-0.33878242875473785,0.14172949494222295,-0.01670009971346899
560,-0.5086996109643707,0.45870689808352255,0.9798492086715636,-0.339463580290623,0.1937977861776585,-0.005341316573642213
580,-0.40367617179787774,0.47481652868658863,0.9479282664887672,-0.2525577981077336,0.27384224600587626,0.007250878080550705
600,-0.23857604925856774,0.5286148437159646,0.9950905324919687,-0.21456681805894331,0.31209773201629953,0.006902217264130519
620,-0.24226392712729172,0.4622512742162766,0.9866508764780305,-0.1657822802023769,0.3877410755195875,0.008625040710377256
640,-0.05043592219166407,0.5667258391939062,1.0535118128998677,-0.10169041519151706,0.4132090077895796,-0.0036036780140156805
660,0.01411040475748459,0.4924834449280513,0.9744205507599367,-0.03661648792164277,0.408307057979228,-0.005599572623502769
680,0.05359708426200355,0.5936261617542,0.9730735306477631,0.08300095605851615,0.35699870239178116,0.0013772540643699604
700,0.14448621740610224,0.41783086391387403,1.0036820301914884,0.14964591177152292,0.35950800561181084,0.003335496939172314
720,0.32556899058568456,0.44995589682893744,0.9947727652928238,0.22053964128410145,0.3054703757751259,0.0008639570593316595
740,0.4373389181902287,0.45075758415279726,0.9912092595595087,0.2766279897192174,0.28063887355987316,-0.001430968671367402
760,0.4946877551814842,0.23941132790785918,1.0092672394883826,0.3414071388000857,0.2308415773311208,0.013668765793419595
780,0.514865770745961,0.28302602647270025,0.9642323654491713,0.3503237164607102,0.1401800580819008,0.012949789946514663
800,0.6366968013476935,0.21701891693720748,0.9994489829822016,0.38515079903474075,0.0812890793670025,-0.0005870864463074775
820,0.6346386421147939,0.044261186284919374,1.003363052931792,0.3990394459182013,-0.0028601962702791105,0.0013426710553056365
840,0.5698194319549292,-0.09189923198846357,1.0016190807946876,0.4147540006811584,-0.06135935508919589,-0.017546647446100978
860,0.555980974718834,-0.16794571648863377,0.9981417037668109,0.3670693821147742,-0.13160173522781332,-0.01695949402147632
880,0.463634095678186,-0.32819701042457217,1.0525333722682633,0.31405213979949476,-0.22527093711187596,0.006065162343948196
900,0.4205433170646101,-0.4641774634070028,0.978034014371631,0.3257416495404742,-0.27470860442157696,0.012711014012125479
920,0.38380561403873287,-0.575211689988526,1.0088138538095888,0.271571429524896,-0.2896717627094551,0.009277193624733822
940,0.21125584557209676,-0.44786723778272586,1.0285565396938376,0.2088793900722205,-0.3627523054693051,0.007124895135915805
960,0.24271768945879835,-0.596478181474796,1.0235670663884393,0.09606503113822851,-0.37195073652479665,-0.0005698205760793835
980,0.014689457758027262,-0.49496791533236933,0.9783921945210622,0.04766293615068205,-0.39517388921119356,0.0007181756747988515
1000,-0.060421633380137264,-0.6808198603731601,1.037732079279358,-0.01402724472569317,-0.38669886866283476,-0.013633427035941541
1020,-0.22892235536541428,-0.606119673171684,0.9810549724212141,-0.11052498061191886,-0.3632860049229749,0.017758230882255747
1040,-0.2626976131743809,-0.5562269783823373,0.9673788124812758,-0.1677598116970926,-0.36873813504255776,-0.006704732503529645
1060,-0.3069589353328116,-0.4783742876530301,0.998421878376129,-0.2595627919590573,-0.2648175136061261,0.016116940661561285
1080,-0.4715641861399727,-0.3525543415212705,1.0242224423052022,-0.31003538405992687,-0.29216193503955135,0.003393902221199951
1100,-0.4559770467898443,-0.2575312108042038,1.0551656386869328,-0.3321880004141404,-0.2298016770946341,0.0011721263861815818
1120,-0.5491254024483546,-0.19619648083046118,1.0105771178720473,-0.4003878592260532,-0.12518149165681172,0.003915761427325202
1140,-0.6285730162374495,-0.0811080744654459,1.0706937640960712,-0.37883315192536693,-0.05217442156792631,-0.020112702804756185
1160,-0.584113524301984,0.036439737726160985,0.9641435158209771,-0.3786716498762785,0.04333635554531912,-0.0048384365841552006
1180,-0.5701562263171562,0.14014433144054414,1.046821305461972,-0.3783602883233345,0.10242632098308058,0.009133889910379315
1200,-0.5753944879534629,0.2714647142667448,0.9973104317530705,-0.377554197294975,0.14902967721176447,-0.019263103405426436
1220,-0.4829586208561413,0.3047627321325797,0.9949703682107754,-0.2829660039524901,0.211761243034742,-0.012377034389608693
1240,-0.43100901127787045,0.39839205430838004,0.979514806504651,-0.27039419982550505,0.2691460293166971,-0.01458467665451957
1260,-0.31490959515680955,0.5034839952247353,0.9922673054956168,-0.19051635068484254,0.3481254953382157,-0.029506696741188113
1280,-0.3301406319619342,0.4810551530884705,0.9850888370473263,-0.14350079801500795,0.37473539493645386,-0.012762713527708506
1300,-0.1714936942145771,0.4946557438507435,0.9896065211223911,-0.08769275977492227,0.4152843175107313,0.004383057479174309
1320,0.006344051579469815,0.6756666630574075,1.0607591194728905,0.008507365066090405,0.42653467128636685,-0.000489896736884524
1340,0.18472649634130217,0.5695626194576255,1.0193205261937959,0.08421676674404394,0.3827577845351378,-0.006681608566607974
1360,0.13914720810484282,0.5582911699616669,1.0184145429222697,0.15071517019423605,0.3706178733373061,-0.0037923797481873617
1380,0.2873623544985847,0.5053369760017005,0.9581089785440365,0.23449718303811523,0.35565689652676924,-0.01736730485334033
1400,0.3618920758038286,0.39780382676031106,1.0212905417760607,0.2650538150005386,0.30088900455099166,0.008839131032593045
1420,0.4312252099317227,0.42884610968011266,0.9614269060030607,0.3344659176453667,0.2363717768272205,0.0021246079861275513
1440,0.6246488582713621,0.2930797518453948,1.0241746417966933,0.3310777899044508,0.17614106070334146,-0.0061973070377821385
1460,0.48951999066039475,0.12161241682059214,1.0006312857554975,0.3821723961992261,0.14215241598777215,0.011151859120021288
1480,0.5919529222429745,-0.011964878173529984,0.9879789902713577,0.397856512782184,0.024049634507386182,-0.006401316037748285
1500,0.5603700180929372,-0.11222496229708293,1.0162916747376818,0.39278804951264185,-0.06813881303515211,2.0209331325658176e-05
1520,0.5996901452531171,-0.1309178645456914,1.0540312231988669,0.32771973004135135,-0.12079548931906711,0.009510400894011983
1540,0.5634374546673669,-0.31383550244811054,0.9757687829145101,0.33662319918362993,-0.17776181861243817,0.005167598102396888
1560,0.44592581152907845,-0.33647957757845937,0.9951134399145074,0.328849246419063,-0.249387069289401,0.005061522578080269
1580,0.32623878277311535,-0.4340173355169348,1.0037016081560601,0.2425896631009659,-0.28689692520282645,0.002521528488456706
1600,0.37182684736811455,-0.5349315297197326,1.0273854900653911,0.21185265693246016,-0.4043037654963911,-0.01828937933227236
1620,0.2000608227326818,-0.6824545006729661,1.070099247181848,0.1203543865450137,-0.3899871922424902,-0.010798815248027636
1640,0.10893384879566377,-0.5385337711774087,0.9545212925123676,0.05698554767513393,-0.36729903402294567,0.0010570308666870433
1660,-0.11387355173863024,-0.6405676191590146,1.004097274478621,-0.04286770155830717,-0.38619773014026815,-0.008111519508751597
1680,-0.07964968037319467,-0.6573531908533331,1.0061231256465424,-0.11660583601544391,-0.3418804913776867,0.0024099932273779667
1700,-0.36550245260056863,-0.5544061025255722,0.9738358345491839,-0.15257280938930673,-0.33160776833801786,-0.018662121483342987
1720,-0.2906424982456763,-0.5408924278027666,0.9998946480084009,-0.2646599991096053,-0.3475307047472128,0.004883961264953116
1740,-0.45521382776555563,-0.3627503655788502,0.9864370914567926,-0.3335710375674843,-0.26799062344161073,0.015873578349748035
1760,-0.5479991066213535,-0.3090661179951108,1.002703736152335,-0.41815403263176676,-0.23138009277671448,0.012428000249526255
1780,-0.6186110553685196,-0.23814877791300645,1.0077328529429745,-0.36436068500274676,-0.1300277221814226,0.0029882102455662234
1800,-0.4965534454107232,-0.14208918682063276,0.9875538028179311,-0.41690154148105596,-0.04213644479961795,-0.014702445102153341
1820,-0.6051182526353538,-0.005371400011360199,1.0114253870309045,-0.3994374032821159,-0.010862980156543054,0.00026223690638306187
1840,-0.5409821056676678,0.18621775950867636,0.9158249462445347,-0.38659505798444194,0.11687392624018018,-0.006869377658301823
1860,-0.5618857735898192,0.25628780533874956,1.0011226822134147,-0.3651887379403389,0.19129455949711566,0.009387271924707077
1880,-0.4949652459749317,0.3736089055520574,0.9922690924000516,-0.3473390902908926,0.21990101287637245,0.019019378293872548
1900,-0.48010830632034057,0.4375282823039361,0.9297390752783212,-0.2912805521097078,0.31057579350756725,-0.01120380987910001
1920,-0.35235815853496927,0.5177193457697571,1.0323890287493078,-0.20961761203997556,0.308074841304523,-0.003765229170765937
1940,-0.33613193344598596,0.6267897737716641,0.9761240161351445,-0.1597080895939044,0.3378418822538111,0.005918524918086345
1960,-0.06028423538098088,0.549559827522733,0.9925020601993202,-0.09800193405400182,0.39989802758988235,-0.006652602833415273
1980,0.019272584240228405,0.5487984644258977,0.977658947260018,0.05201810774547517,0.4078369884769034,0.014551035844543583
