timestamp,accX,accY,accZ,gyrX,gyrY,gyrZ
0,0.013971350500442523,0.6343278511207106,1.013528525116689,-0.0004602114301058491,0.4195773922099512,0.021209116580641882
20,0.03618013993602949,0.5862033016442485,0.9920515327064658,0.06161828327246118,0.3699868312479411,-0.009312751719647919
40,0.22900823887927993,0.558237407403174,0.995069114489122,0.14546065688835347,0.3509474793635822,-0.01408657567273913
60,0.3115851725756334,0.5397016127870454,1.022920707159886,0.20147037506701992,0.3267514173856827,0.009233248822162707
80,0.32562128699164533,0.4037182192215359,1.0081017648223,0.25782388722538135,0.3120879714535128,0.015168324321538975
100,0.48208327192478384,0.3253444588772589,1.0103429109887383,0.3483765491233062,0.21187856232503402,0.00152736786752223
120,0.6122000954889824,0.2641625957464923,1.0380252367083305,0.3442484473740196,0.16349525972240533,0.0008029109090033223
140,0.5043522819712838,0.18846435835674114,1.0440773228751348,0.3821656573637545,0.10082129376714057,0.0046109165633801295
160,0.5551462528742525,0.060220690292051626,1.0423467158619621,0.4038420955532704,-0.008765763717964618,-0.01589622528939604
180,0.5545465560982741,-0.0822900056418369,1.0554784100086525,0.3869240419655085,-0.07043000299997032,-0.003322160370041619
200,0.5507667888147397,-0.23941572938459071,1.0336226538557578,0.3868197104225317,-0.12481489271541568,0.008904465797214852
220,0.6179503719601873,-0.316459281984979,1.0239764863097354,0.38699583915592994,-0.19809793801563444,0.0020708092027684503
240,0.4340861182878446,-0.5307348931373977,1.0193571423957246,0.3076618938281542,-0.23791898112340273,-0.017826637367304013
260,0.31293092677040046,-0.336753302067092,1.0235666714246292,0.2192813732068158,-0.3721857606795826,0.005407882224567089
280,0.25733775406092013,-0.5304371028869166,1.0006525165748437,0.19956488802616407,-0.3317002212147969,0.004738920655312648
300,0.0894135295859189,-0.5419249342446383,0.994495555855522,0.13000885994022168,-0.3734480984846606,0.016893426796893447
320,0.05578361460983891,-0.5880990691357705,1.0337939901692066,0.024859421883778154,-0.39046598989875303,0.01967909337783018
340,-0.06839168770261796,-0.543221984038772,1.0433232731901314,-0.058651252166282114,-0.388334011389692,-0.013213864578592634
360,-0.20831898645566416,-0.5543123015418249,1.0327918256319364,-0.09852314701684281,-0.4037811403582706,0.0018358855768890012
380,-0.2468805620751861,-0.5553994851532955,1.0150430289620767,-0.18188519180516163,-0.3655283544051928,0.010795273537212527
400,-0.41686602850299537,-0.4461791224738064,0.9979547759764174,-0.2542162264726986,-0.34832970405438995,0.007743085158139362
420,-0.4910270253300537,-0.3051034853103198,0.9839970754719135,-0.26976433378324927,-0.27706463099072387,-0.005787690411066373
440,-0.545413743264074,-0.213238386365802,1.0041039068967976,-0.31204633123026904,-0.19272997295211683,0.0032712407628640874
460,-0.5813852846870796,-0.18713100415296255,0.9643075436605446,-0.34893705503015393,-0.12551870633677845,0.006107262589308198
480,-0.6264250743927033,-0.04386058560430649,1.0348560628561565,-0.3921790739383413,-0.07810324451357456,-0.010220563565323016
500,-0.6057578467860587,-0.012768884594493591,1.000097386436822,-0.4127264145097528,0.023095681743788832,-0.022117049992258653
520,-0.5863106312315868,0.21468688725931123,0.9964813393228672,-0.36769878003671524,0.08921154108132501,0.00022448049618791803
540,-0.5740940288034561,0.26096350199576007,1.0105799357105256,-0.3716263004593816,0.1634552799204538,-0.006989215717243579
560,-0.4522294556248741,0.3971870243577772,0.9850731508249738,-0.3203053011619143,0.22345788141337566,0.00032967911847181996
580,-0.4094683500925743,0.5017501497883347,1.002290281348958,-0.2642763249080291,0.2874369720623933,0.01707050840584117
600,-0.40274918532243753,0.45095450814389726,1.0116423342933494,-0.2501025730619894,0.30797204072163953,0.005487850063988976
620,-0.23487609843101337,0.6135310435783465,1.0290414574441238,-0.1544074690348551,0.37641397949690464,0.014408739299165259
640,-0.06972626245130004,0.5874494895965094,0.9868944019425019,-0.06347653652872484,0.3806313939405734,0.003723142845082015
660,-0.013895889461381112,0.6337726242326416,1.0396502529796967,-0.007159439943493038,0.37148516649555624,-0.009090202084252336
680,0.11045925286049456,0.6184720358610785,0.9872462161318017,0.07224196131945462,0.43830255089901626,-0.006503418215726471
700,0.21212165950093567,0.5351719126211223,1.0682266786505583,0.15956660555192037,0.3981124030854631,0.0018924051736312006
720,0.2389162733048676,0.5346369615688945,1.0316162773529947,0.23388874728371542,0.34228115533774994,0.00802078715923388
740,0.33948762037959485,0.3561260137354274,1.0097752742020505,0.2542408130508261,0.2683491668631571,-0.015532305955206832
760,0.538312174106395,0.29611861639333137,0.9614627936212878,0.29635026897685024,0.2657957181313656,-0.01906050137698943
780,0.5238397203008636,0.17730744318020014,1.00899324188387,0.35742988112404006,0.19506561581493584,0.003029349629086127
800,0.532160928186592,0.17334164339043928,1.0306678568152403,0.4110257668322863,0.08637801659174839,-0.0159556285755452
820,0.6356695282701127,0.009161538231994951,1.011108289319024,0.3972160067907473,0.027622043584865443,-0.006336696856982056
840,0.5229447660468207,-0.053308645204830155,1.012960829891469,0.40077861431351697,-0.04393291480241025,-0.0004460574722913057
860,0.5313299942173777,-0.1320958712467113,0.9959590931655503,0.3964910507609198,-0.11768542078065161,-0.00888245263109163
880,0.5063440048437652,-0.314141194024928,0.9823788149208829,0.33805402918551036,-0.213451691616612,-0.01610282170343187
900,0.5129844569376644,-0.3629532672159126,0.989894565162094,0.32494533263500813,-0.2200969189352745,-0.0011677520383051912
920,0.37872085567494745,-0.39079508909054717,0.9899089169866367,0.24278737235231979,-0.34995089324969836,-0.0065005611857995825
940,0.23445922406329645,-0.548441005042002,0.9931545074913258,0.16608345347632572,-0.36528175141102137,-0.006874875827163167
960,0.14139478213333473,-0.6432095931659892,1.007450415648942,0.10202779232511382,-0.35518966632986515,0.0060882289116124
980,0.0804178376856143,-0.664647748958594,0.9779942633955878,0.015035690639243145,-0.42095137082604706,0.00958671458064995
1000,0.027523101070775727,-0.614609633643281,1.0547863125411265,-0.0542720734688351,-0.4446152711074444,0.01895377364055478
1020,-0.09647998784426913,-0.618696071390718,0.9825116391681992,-0.1065593931396064,-0.38744546943740354,-0.014854299974537835
1040,-0.2642614248457919,-0.453964011791191,1.025035341557521,-0.20107107741251073,-0.37581355328004074,-0.0073204921384316625
1060,-0.30768052910756605,-0.4807620207263414,0.9867357052185638,-0.2474715376629374,-0.3254297513860763,-0.01090563663951731
1080,-0.48250368854946685,-0.4553148748333357,0.9725684808045437,-0.2729630810785381,-0.25312025126324955,0.014903991159820731
1100,-0.5066000019988646,-0.34518748973444646,0.9656286665462459,-0.3193398079734359,-0.1844928692210374,-0.0034363158622555774
1120,-0.4831165591222317,-0.17869726685573992,0.9991745849574608,-0.37399806552666703,-0.11765031450819644,-0.019484265466108014
1140,-0.6964278152554112,-0.05315716489021861,1.0047144197175681,-0.38979896018065263,-0.018544850886002467,0.005870073316117886
1160,-0.626644117029511,0.08130355630014642,1.0100094831292163,-0.394538091671205,0.028707999807585823,-0.005979699737585516
1180,-0.5865602270247225,0.20382708782459225,0.9635208136920025,-0.39370312791446754,0.09468492188666984,-0.0031360410407910363
1200,-0.47673884054093985,0.32075605027413817,1.0422166369986308,-0.359037958497934,0.15157367091143825,-0.01976242554446054
1220,-0.5569806330731824,0.3551486944585352,1.0323189699770206,-0.38766849931951,0.24551142255495537,-0.0006273653106570089
1240,-0.4324946146588964,0.32825053468259835,0.9567494771906879,-0.2676571552567861,0.2523646541959528,-0.0009080861818875598
1260,-0.3325629053570447,0.5781916542752007,1.0117077936071661,-0.20407826032462817,0.3540637033675117,-0.007559424607399884
1280,-0.15933687168497807,0.6776775471589324,1.026936851165212,-0.1310328991089621,0.3862968926258817,-0.004161203828455133
1300,-0.13791729756449075,0.6768015507532119,1.0293061282702232,-0.05129479918061826,0.36676561611446545,0.0025758092894704087
1320,-0.0001545335427754144,0.6644690430419077,0.9616830156650041,-0.03520430479946181,0.4013572238050224,0.004734545611937074
1340,0.14025129525619365,0.5671848819269749,0.9848212625531844,0.06174147902525573,0.42046776316153106,-0.0026276863951148572
1360,0.2143584260649182,0.553265575352574,1.005167237722292,0.12661144031797456,0.3757227535392204,0.022727263097403725
1380,0.3035469711797926,0.47253473019657943,0.9917675182435521,0.22788097884795006,0.32435566294055024,0.005530874956326888
1400,0.4873895757448229,0.4461226333671105,0.9466436157196217,0.26751593982951377,0.3086135602631489,0.00861695907422351
1420,0.4102504147958949,0.3744359168921792,1.021791406912225,0.3342311042030002,0.2145387319938782,-0.012828063053818745
1440,0.5781713144565005,0.2280829774625964,0.9872203509554206,0.31623149957201296,0.14671372410818345,0.0069831454563961505
1460,0.6178054636218174,0.2299875856327036,1.009418116623309,0.40117874770344314,0.09954239052099939,-0.014583432156176579
1480,0.6643564398832091,0.02115871545915799,1.0420734344209466,0.40365316508431887,0.0062823474165735384,-0.01830116061376194
1500,0.4693578840225343,-0.0673509910689891,0.9935495240754187,0.3946515472727131,-0.03160901091160365,0.015012624187598711
1520,0.6149665137484833,-0.17260845853540638,1.0101159309739158,0.3867617593111121,-0.10177222075708098,0.001023664956811554
1540,0.4847377251980972,-0.3412320601114693,1.04349885884424,0.30153316632069,-0.1764035102346515,-0.013727461336357341
1560,0.49289920793634046,-0.3369116907949764,0.9965796385180565,0.2863093153212994,-0.22804500068055422,0.01667930391468821
1580,0.3434439988457236,-0.4936326502133193,1.0308138362489427,0.2424657082747152,-0.3085195076604934,-0.011049562657212006
1600,0.19259963506698474,-0.5302585132076071,0.9857902532577898,0.19218990010515458,-0.36245013940036286,-0.016648779923975694
1620,0.12621556669875655,-0.5895822747431331,0.9995999656481389,0.11443572200371695,-0.3797589192755092,-0.0035013072817335258
1640,0.08724295107242513,-0.5326746668742479,1.013318234836146,0.06521348009805027,-0.4078561200566465,0.008533235513209739
1660,-0.05837676201117048,-0.6427355914147813,1.0264882070509875,-0.02546537541670523,-0.3762630142311647,0.0030375352487823104
1680,-0.11952233719277039,-0.55290703090857,0.9936652748983194,-0.11924122293058008,-0.32888919539802725,-0.002018882137537398
1700,-0.26760148812921136,-0.5041331907453935,1.0071992724353729,-0.20850067852976537,-0.3363343935591927,-0.01113243953284713
1720,-0.36559361829649134,-0.47719344896805477,0.9347402591922477,-0.23775638018903658,-0.30120183687313246,0.0001300904126841023
1740,-0.43126996443308396,-0.47596763970081124,0.9757992062684719,-0.25729374527913906,-0.273810445376727,0.0027574687465426197
1760,-0.5182941974225915,-0.3537437409375059,1.0193248805856596,-0.3294829533458349,-0.24411090238510616,0.0014558227805264391
1780,-0.5252813379079792,-0.25741760567967764,1.023886653448511,-0.37053949494792726,-0.12730727163059002,-0.005444402031708292
1800,-0.5787825939075649,-0.034901800341872444,0.9847368890862032,-0.41127914855222486,-0.06306844111782488,0.008797499155079267
1820,-0.5657316342516704,-0.024129596445332423,0.9553713770996811,-0.4180028368801868,0.03232823694308727,0.003094504076757171
1840,-0.618313703369795,0.2268860357215124,1.003450765996489,-0.40132088877678007,0.0801984301049795,0.009222552277883435
1860,-0.5020262441043056,0.32253643644333224,1.0885731660188918,-0.3454548469458636,0.23113123027112398,-0.010144354584592988
1880,-0.5122446280561227,0.3242924467578497,0.9810079319351274,-0.3463040237571017,0.2294400610306908,0.004115633360899661
1900,-0.4283775348973698,0.46520812119838206,1.0131118854276346,-0.29328445627278926,0.2885600650623568,0.004657102740867813
1920,-0.31046321781132147,0.5240584303127401,1.0001991075517704,-0.22302402115498132,0.33422353304774255,0.008197958815383136
1940,-0.20123961122000272,0.6485418413289559,0.9800918019637105,-0.14943955746108992,0.36008826609014005,0.008416675807699468
1960,-0.05303816638852007,0.6011303004311381,0.9887877756160953,-0.09336123996096996,0.41461287865261653,0.0075144234726836215
1980,-0.0010268726329190632,0.634128593175044,0.979032844419774,-0.019198375224764877,0.4183471295024523,0.019852524009930036
