timestamp,accX,accY,accZ,gyrX,gyrY,gyrZ
0,-0.006380649547205978,0.0027184393863262653,0.9885489442954213,0.00016842069392601443,-0.0014454192034588453,-0.003305353654867832
20,-0.002752827377945224,0.0029522036797550704,0.9919557164514013,-0.002390966864765027,0.0020306068094080895,-0.0013414215062241795
40,-0.013963919779999613,-0.018261523285778382,0.9787233679081467,0.0003557839297577392,0.0024433392817313207,0.0012491955617253097
60,0.002411651787088877,-0.008266497460624187,0.9927325626516487,-0.0006823455466354909,0.0014671036476785386,-0.0007597077273019489
80,0.010366225174569524,0.019325372631011792,0.9746701138252156,0.00011525419877420969,-0.0007810236189273715,-0.0006965181758623319
100,0.006575082653031823,-0.010381299924255426,0.9979157637873936,0.0017254163902358313,-0.0019297800191793437,-0.0003900072300612372
120,0.005274805395966931,-0.001647226408044999,0.9599994883626861,0.0007246545481186225,-0.00033390310736895556,0.0010618068582609632
140,0.00047774119908339344,-0.006599093219340108,1.0043200642459158,-0.001372987808647319,-0.0004220459870037322,-0.0001800503395072967
160,0.003210077202108599,-0.002786195285959894,1.000133560518076,-0.0008807562270070595,0.0011979442456718661,0.0011678866938463126
180,0.0038869995781093554,-0.021787406960275573,0.9740044697594072,0.0016329631120508541,0.0007478264087382189,0.0025649717101301306
200,-0.012070566089969086,0.0005202634247402381,1.0218767901689108,-0.0002351892825034516,-0.0010457703142981787,-0.0002870462184663974
220,-0.015909666135302557,0.006538912267750909,1.0096760085031549,0.00012799180879118877,-0.0006608584277200279,-0.00035837499388306695
240,-0.001955024146263896,0.004053487677515336,0.9816625959440698,0.0020185843287554663,0.0019006420222207154,-0.0014655859163326668
260,0.0024946705914300764,-0.00236884948764924,0.9857384094564474,0.00019006100497760646,0.00012364500267920923,-0.0007947530174728754
280,0.007602604456925564,0.0010215918220649188,1.0212522856619697,3.571105545059089e-05,-0.00027860623686734153,0.0006203515420161183
300,-0.009555330445033627,0.007081255011388422,0.9885673765299566,-0.00038252347477369904,-0.0008964456549027197,-0.0008791501091690064
320,-0.010184813824016613,-0.012462014246430526,0.9604432950655232,-0.0001449957431592563,-0.00038600967085481206,-4.1526259329523684e-05
340,0.004337816053239201,0.004857451128026273,0.9848684035169755,-0.00040569122481790606,-0.00034104338283275104,-5.388281685359764e-05
360,-0.005508945286109592,0.01363632989662586,1.009734829525006,0.0020069751840360744,0.0003602581249108418,-0.001736511086014024
380,0.005031329862988193,-0.0074041049273467704,1.0220763746407815,-0.00101556082066793,0.000792479790869428,0.00010035543046236487
400,-0.018487880819583413,0.01920511212738684,0.990985522086896,-0.0006247085984567908,0.0005245481683634389,-0.0005402971192634211
420,5.617806416002971e-05,0.0017712906942356167,0.9864835933903165,-0.00019029002464788684,-0.0005096933890414161,0.00042408612592900686
440,0.008005330367418424,-0.012277881470086533,0.9941624560343539,-0.00011160331476594346,-0.0012806111680736373,0.0007824623966286604
460,-0.009475003015258636,0.0001877877964303957,1.0121147762408724,-0.0027828751917724093,-0.0004173928328370706,0.00021334075160366167
480,-0.0025547061842454265,-0.0011523478519789795,1.0076258102549382,-0.0017203604201105778,0.00040087703217799085,-0.001317004061894379
500,-0.00832995644226968,0.006588025863722657,1.0360599827077757,0.0006774166106058744,0.0006888605248109334,2.0881176449364633e-05
520,-0.007849829780208246,0.007266791372969851,0.9760629474622641,0.0003383428227572833,0.00019974303742087898,-0.0018677930032872292
540,-0.017205526125879694,0.009345528781663752,0.9799403882161565,-0.0006299735612310721,0.00015217393164460117,0.0017551651554443262
560,0.012642724494250393,0.016477850866067966,1.0045651035663585,0.0004207857832670927,-0.0014232728146188623,0.0003287431781231491
580,-0.003923882678544776,0.0012175254403550264,0.9714015325355905,-0.001279957474623437,0.0001379995282656755,0.00015856545531052477
600,0.007816585802420326,0.007549065736337789,1.0047495375163593,8.26958080347624e-05,-0.0007065111850720921,0.00021701179714531119
620,-0.0037863328419837712,-0.007961273184082,1.004711957909041,0.0009763036688199317,-0.0009363526888156868,-0.00025454637384539445
640,0.013193582425895314,-0.012924166861576556,0.99350227490252,0.0007574383122884546,0.0003065352766357194,-0.0006561989000143154
660,-4.197464973477069e-05,-0.010031515087573526,0.9949922208879561,0.00078894621743812,-0.0009508789860317499,-0.00022109489282861849
680,-0.01927778537366565,-0.017365674243187974,0.983143374598699,-0.0006977425622403565,-0.0011857024113840278,-0.0004611000886023554
700,0.0028872873172307717,0.02923069721795535,1.0342850652081954,-0.0002173673587572646,-0.00030301749323655825,-0.000386938847770459
720,-0.016896667670611307,-0.002162652565625728,1.0165266380772306,-0.0007356649256994969,-0.00029059744592789484,-0.001148254454769337
740,-0.005858845417345876,0.006459041701466244,0.9944223098209194,-0.0005026671069589949,-2.476250176398731e-05,0.0007443553008922103
760,0.0070237209307607296,-0.008937856949977663,0.9720956116882685,0.0006564569357734983,0.0018642671270716247,0.0010412720675945027
780,-0.009337827836744394,-0.015780345904780054,0.9771049016665527,0.0016587727667625655,0.00034065692256107376,-0.0017104357745549633
800,-0.0006350042238751422,0.014827420531192584,1.0231195608945238,-0.0007248690810105449,-0.00031826090750870697,-0.00023886479419908463
820,0.020071669501090718,-0.005471383380641295,0.9957899046992597,-0.0001367748513968889,-0.0018374247903027903,-0.0007125311045364478
840,0.0048765746404749065,-0.003782671295431056,0.98290912426032,-0.00021939125246478108,-0.0004211366356535702,0.0004039988959811696
860,0.0015295865306515389,-0.002281602824471979,0.9869170626741792,0.0021679828093546655,-0.00016108816462657223,-0.0013657581500658579
880,-0.0030181155114705287,0.009368800977198784,0.958670477321093,-0.0008965282910366399,0.000183496242650741,-0.0007798756407594139
900,0.005028548453717978,0.0024008175636261128,0.9890423439417284,0.00046569288415163615,0.0006522023521905465,0.0005452000436661596
920,-0.0030693900439893,-0.0051893993891458335,0.9942184106899208,-0.00029369921152551235,-0.0004200224348843914,0.000706658750328644
940,0.027359001607062856,0.004154264344669747,0.9569120729466832,-0.0008618002568896807,-0.00030569315760089365,0.0002984460640005262
960,-0.004342543314385709,-0.010129757419589092,0.9789955452090696,0.0018438351656021614,-7.387742382680312e-05,0.0003636677391282107
980,0.011281353323152226,0.00451192648099493,0.9732982014878212,-8.176351525685469e-05,-0.0016351252883758261,-0.0008169509625991143
1000,0.00724929987342836,0.0024328398226861944,1.0045821728909845,-0.0016392905237463042,-0.0003064219223169595,0.0020605136269433114
1020,-0.00041523749361135,-0.006133288594120161,0.9919144353463436,0.0005629077300956201,-0.0003832623836079207,-0.0006921850245311425
1040,-0.00016973709795997498,0.0031206850888361943,0.9954043187373044,-0.0003278679981778929,-0.0014131784925149398,-0.00010228239529265006
1060,0.006052979568318367,-0.00701815675018328,0.992865643985063,0.0012578192341575942,0.0033732845357837466,-0.00019967144797753688
1080,0.0018745666608442387,-0.007372296845451547,1.015932127310129,8.402699977097475e-05,-0.00032546845179313663,-0.001417725457296939
1100,-0.009048038628645035,-0.00860971768913709,0.9984819977147745,0.001799161697476312,0.0010139635762784192,0.00040350698036200055
1120,-0.0001705679134084153,-0.00046820561007958783,0.9745507045493365,-0.0006789296389003769,0.00035794401048266255,-0.0012034719165849278
1140,-0.004727802296514368,0.00252579034490376,1.0397459248921492,-9.113513764856696e-05,0.00016765931451195003,0.00033614570654182276
1160,0.007830327352765214,0.008559287404757044,0.9806248750414587,0.0005166483504443175,-0.0014273867556883527,-0.0011971094060983553
1180,0.0069983069870356495,0.007309455624384508,1.0138249455181483,-0.002386969669872263,-0.0003520362475723945,-0.0005052673399872662
1200,0.008886632174681806,-0.02226465498111123,0.9783636673680396,-9.884162761444148e-07,0.0005245379684217296,-0.0008735571880987847
1220,-0.01475960710523613,0.012829004161801499,0.9980136511815955,-0.0015805481001475218,0.0007444836988184093,0.00021765115662051806
1240,0.00414625252378207,0.004457864652131488,0.9940764961950351,-0.0011901155875830556,0.0010609717391319364,-0.0006222708082174832
1260,0.001640251929902101,0.006277002484411613,0.9657478022411815,0.000785943093423736,6.096342333631765e-05,-5.4628139476760714e-05
1280,0.011393826270027258,0.0139723751328689,1.0049771692179597,6.055582478434719e-05,0.000482445377032749,-0.0003451476567703546
1300,0.0052493414957440485,-0.00922836280983966,1.0231861091313332,0.0003329618785054322,-0.0002605849212057672,-0.0011384266574513428
1320,-0.002076727249148993,-0.0063218526691999535,0.9939225061412761,-0.00027843150223515043,-0.00022456739867401438,-0.001118094932953738
1340,0.00454492127948763,-0.004786334668827214,1.0023033555456884,-0.00046076016999792996,-0.0006084024627243078,0.0008319981565160537
1360,-0.0005989007309614236,0.01760881474102282,0.9735274331551215,-0.0002852850418850707,-0.0007445109053094836,0.0017091218128743265
1380,0.010234507240233313,0.002824159978040348,1.0104267118032833,-0.00035742287228316874,0.00033714122799813833,-0.0003811537178748552
1400,-0.0006391430437830508,-0.012306973803182799,0.9961570329243014,-8.300033949228897e-05,-1.0889928618492366e-05,0.0004463662309877953
1420,-0.0029210207102408105,-0.003671048320290282,1.004076926816736,0.002260441374214921,0.00018004129340556756,0.0008717944558761558
1440,-0.0014678030844277126,0.009332147898941703,1.0128505164443673,0.0006374765930756048,0.001551820986877783,-0.0011851635922455455
1460,0.000945369992960438,-0.001944577861083456,0.9785104960227953,-7.301168662522634e-05,-7.46510542401356e-05,0.0011039133607328967
1480,0.006603427484840008,-0.013357794609573755,1.0053545070480308,0.0008258501279185704,0.00047785786542580875,-0.001894807289925116
1500,0.0007427627494071086,-0.0013501342347438708,1.0122919022545571,-0.002641137134040319,-0.0021419374918679036,0.0003840285371677419
1520,-0.00617132525395517,-0.000599966278957256,1.0326585979567082,0.00014181372167057987,-0.0004077303899810048,-0.0005196225715576777
1540,1.577032008739264e-05,0.0017603358403993014,1.004603849953554,0.00152277250091227,-0.0013996772516150673,0.0010908097272157745
1560,0.007605046166138781,0.006851952009788661,0.9961766164304554,-0.0005827871879885415,-0.0004011256800589293,-0.0007531011563794301
1580,0.0043914899595516275,0.005518698861797657,1.010785472915926,-3.612039789906615e-05,0.0006172299828146725,-0.0017756961566307006
1600,-0.01165614168207825,-0.017762060224681592,0.9742755907708992,0.0005244260452440114,4.7546250490745376e-05,-0.0004994812802762244
1620,-0.0023035217398204573,0.0018291303973619062,0.9985828562613952,-0.000826919754519911,-0.000599850833866903,0.0010453007049913178
1640,-0.014886687731116564,-0.008572813583303142,1.018190035370355,-0.00040152553415567717,0.0005221703534297564,0.0012187872021882198
1660,0.004546946591208374,-0.006424602328569617,0.9983103793331424,-0.001106160927839326,0.0008879094800074993,-0.00022573029029285645
1680,-0.0009764323462211785,-0.003260867324468359,0.9795120638123582,-0.0010840226093197715,-0.0009954698894402755,-0.0005949919543645113
1700,-0.0034596204098134094,-7.99569707518699e-05,1.0390560626033516,-0.00010727020075689735,-0.0006303036180193783,0.00040938691034674983
1720,-0.016661419326118025,0.0007703294694049648,0.9932406693139121,0.00039791863561576654,3.3347317818353787e-07,-0.0005428801474001919
1740,0.004429506577625149,0.0012756935464803961,1.007869815066333,6.289927721860014e-05,3.6692059857689925e-05,0.000123334079372938
1760,0.0032436466831673454,-0.008907495054656996,0.9801781893808197,-0.0009110952018806473,0.0005645159003869922,0.00020155270747435026
1780,-0.012797494137352735,0.007050550786632407,0.9913426242209514,0.0011500528980955597,-0.0002942125197658329,-0.0003690462565954071
1800,0.0011841444983248539,0.005384448332425721,0.9848296940676576,-0.0017510363890620613,-0.0005103574585445088,-0.0006467748238735011
1820,0.012345844572134435,-0.011051594964219012,0.9661037643916497,9.118047242448945e-05,0.00027987625353918094,0.002305076389061561
1840,0.016137346817413793,0.001979137777759922,1.0312588319682425,0.002396152003619966,0.0002521076964278098,-0.0001160417834986745
1860,0.005658107967415397,0.0018210090171327015,0.9756766031068714,0.00022593666537617507,-0.001974510290605442,-0.0005365652718642913
1880,0.0023925757508780686,-0.0005834548565238481,1.01251481875864,-0.00038845798495335915,0.0006519199749631603,-0.00028345736563305333
1900,0.003373671709751021,0.00882728647801586,1.0241453112553554,0.0027892751536211188,-0.00032654615754036236,0.00013646372415506043
1920,0.0016522705624633961,0.0051889138835509874,0.9990145041865817,4.0310592615330654e-05,-0.00024756116762183084,0.0007871545585614848
1940,-0.011566869536741891,0.014571352920536872,1.0262664286241951,0.0011165730092229408,-8.045539511343562e-05,0.0011893848647698568
1960,-0.020646359647911127,0.00873031144203775,1.0013393731441607,0.0009409513184282369,0.0013576710386607254,-0.0013729336207493443
1980,0.003503559350553894,-0.010315740131757144,0.9817918207852268,0.0016010654642411477,-0.000763032421082568,-0.0011243722384906654
