timestamp,accX,accY,accZ,gyrX,gyrY,gyrZ
0,0.010155327348607277,-0.0059654422302010705,1.0139037555272803,0.002286250313841403,-0.000697284254458491,0.0017592290127741445
20,-0.016577034505458273,-0.004679242400772049,0.9869905715523611,0.0013276126877149641,-0.0023540688526523163,-0.0011537387731973292
40,0.006099991711470002,0.0045254392852407364,0.9849911557173527,0.00022511781839084074,-0.0004225156419587307,0.0002856266638340393
60,0.011667373367998899,-0.013617912874289926,0.9706815902823424,-0.0006215138995619645,-0.0019012433958083437,-0.00032241052120122836
80,-0.018865713761317075,-9.498695366749265e-05,1.0280538462634325,0.00013198172191140949,-0.0011548726494212225,-0.0008727311117147223
100,-0.013594967448477317,0.004492536238872024,0.996967961322898,0.001369828111280067,-0.0002588089076981457,-0.0012977028196507073
120,0.003202208271630172,0.010425862788528218,1.0594421499028905,-0.00032743129848707505,0.0004960045659931413,0.0015033439648634503
140,0.0031310797095371397,0.011800804931299725,1.0126844385234535,-0.00012189172943731822,-0.00016908734334191819,0.0017524924824633375
160,-0.0017793160695130398,0.006495880763455732,1.0060346913010783,-4.982694036209394e-05,0.0008400603639983365,0.00012801697559331734
180,-0.0015252446782311395,-0.01101124931084428,0.9654560006000122,0.0016552480681522432,-0.0010206531558809853,0.0006156617312165813
200,-0.00014946330880192854,0.018825499802451816,1.0209110251079463,-0.001022903583984901,8.42607242013854e-05,0.0004257223704054358
220,-0.014232573062660337,-0.0031511341651154234,1.0120397697859513,0.00021091531107551558,0.001047977681889553,-0.00014219896955133988
240,0.013857712835239901,0.00024064529527880417,1.0295120740111974,-0.0004966474896019008,0.0007846605048173287,0.0008832732683155525
260,0.006217293894625733,-0.011163297942977159,1.0046637056498622,0.0005390997370942986,0.00029611376056575954,0.0006824124757537557
280,-0.0041774810518731085,0.010763930712137776,1.007357413560106,0.0010364816876464369,-0.0007027461575547002,2.8148714739629656e-05
300,-0.009500667412565823,-0.009545595343336157,0.9695280908013324,-0.00045599743813347625,-0.00040545706858881975,0.0010198979092312776
320,0.004924921573271324,0.008703336890715103,1.0014482981255042,-6.171031992020733e-05,0.0001280271496452899,0.0006523882149684566
340,-0.001203829735782613,0.012554498184516927,0.9914689998334867,-0.0004484248480054684,-0.0003274196390954062,0.0003456897726342836
360,-0.001304364822051072,0.018212379031774743,0.998804238103668,-0.00034236746564418716,0.00037170504217069533,-0.0001100402236042276
380,0.010739839102201656,-0.012647370632611885,1.0097551257938935,0.0003215321792249881,0.0005959536600357137,-0.0006752586617628424
400,0.015000867268130231,0.0060655658576875575,0.9921746925943158,0.0004294537774832282,0.0016459176084216269,0.0004412186926621829
420,-0.015118624104415808,-0.0012280404997861267,1.0379770068330851,0.0006590402099831165,0.0016943395480364884,-0.0011478463072022546
440,0.01083794131250369,-0.003387683098787161,1.0186327082876219,-0.0007188841595061377,0.0016171570926976932,-0.000988715362319151
460,-0.0007488425332986641,-0.0014747700294363703,0.9966019587966318,-1.062445336887647e-05,0.0005623051240532945,-6.2826043608585275e-06
480,-0.010491703041270815,-0.010075487190620626,0.990410046897739,0.0013105405196565153,0.0001759442114233573,0.0014346380225909844
500,0.0005495635343097993,-0.010676905262220841,1.014302570040865,0.0007249380376763324,0.001133404575802268,-0.0002775126232295332
520,0.0008899957213392575,0.011081729691132356,1.007058286098799,0.000141903741300727,-5.1268507970059426e-05,0.00018139283128166937
540,0.010405151556473438,-0.01687570572028326,0.9904007334654699,0.00016128420084099242,0.001786107032983925,0.0002286108177484073
560,0.005409369884063368,0.0012967325272126217,1.0151208197307366,-0.0014901484881157125,-0.0011910671902497147,-0.0009540333932639107
580,-0.005017047062445653,-0.02533787615976863,1.0256666362557936,0.0001987748160057376,0.00022407838064076693,0.0006236158623420988
600,0.0014667758905924516,-0.008993850314432282,1.0150387048235148,0.0001236453678244539,-1.572335568286733e-05,-0.0004307421556229472
620,0.0046181512999060575,-0.010816437587831613,0.984852689527823,-0.0006770743657637716,-0.0008889622938147799,-0.00024776485168035274
640,-0.021397695050123813,-0.011893516620189263,1.0071609746158205,0.0016821054991899773,9.015665403434248e-05,-0.0007449792922349534
660,0.00960720022191338,-0.009931821537337699,0.9762132685311514,0.0001256904972346418,0.00026264179210590244,0.0005824412370419954
680,-0.0010441954443126153,0.0011710621602841155,0.93772848288486,-0.0014596664388294763,-0.0007132233782001775,0.0010413109524235852
700,-0.0034062486329610665,-0.01403742101758665,1.0224692131504076,-0.0009900832366393103,-2.7174146018958688e-05,0.0018101688923433893
720,0.004562881215854233,-0.004836734881754547,0.9982921154244909,-0.0006644030865211777,-0.00024220813939379755,-0.0010044568736938347
740,-0.00871292997243463,-0.0009227040008368811,1.0496743440596508,0.0003196111228364872,-0.0006869781835414064,-0.0007760804657318778
760,0.02466970889929209,-0.012405233922250956,1.0288708607395092,-0.00018158501952736318,-0.0005058683180337768,0.0016988277085280394
780,0.0048530745215702425,-0.006328317811127208,1.0111258440837347,0.0018494525995372045,-0.0003016100238377379,-0.00043761906367536054
800,0.004197592938649547,0.0009944078465857753,0.9898637494992595,0.0016493466129209734,4.928647201988775e-05,0.0017948502356806932
820,0.00668173773479423,0.012800451389964438,0.9970616784140665,-0.00028731530541511275,-0.0018383395339441758,0.0003131810758868332
840,-0.008451485351190384,0.007695330171877539,1.0089747240990998,-0.001151403108755139,0.0014499457093510022,0.00021507575329621884
860,-0.004403838269776132,0.007333380082721369,1.0041246318702126,-0.0003746173140523568,-0.0003702692124974645,-0.0006655423506040246
880,0.004275034661885098,-0.011772119654264094,0.9969758031384242,-0.0004082222498417804,-0.0009282405138788811,-0.00026029680016365195
900,-0.008942154303583584,0.00010205791665758945,0.9998009309362843,-0.0003748575336214781,0.0013153558548960021,0.001513363540869265
920,0.0026126774192915692,-0.013910184739707192,0.9689997959721269,0.0006136293651677098,-4.610132622515825e-05,-0.0005341144713512857
940,-0.00018661361899283027,-0.005407180861571924,1.0066515997533032,0.0002605450955504105,-0.00042690965353930286,0.0012048082184415326
960,0.006433663516572441,-0.004170682237496924,1.0134062893378217,0.00037162582064423604,0.0005973332102289281,-0.0009649836137564464
980,-0.008101728054533686,0.010922865425176207,0.9955762589353436,0.0010905779301884136,0.0011170102635346092,0.001932073335730473
1000,-0.0061956891211075475,-0.001531737075919629,0.9940366264503614,0.00012158518543042119,-0.0012704107662376914,-0.0010570938864923106
1020,0.020782312227175904,0.0011109996236165305,1.0191128181606925,-0.001704301598252943,-0.00011719159080342156,0.00016812982111662683
1040,0.008900112143374593,0.0036176247625886266,1.012670344164277,-0.0021007193226877073,0.00013534157396619454,0.0014628819882376433
1060,0.010123471257038906,-0.0013064539656611335,0.9938705972885796,0.0016015448519431125,-0.00046990860257156665,-0.0006886157425831049
1080,-0.004062390523448641,-0.009345867857792537,0.9819433364588515,-2.8964130039241625e-05,-0.0007607695457188621,0.003238587680279786
1100,-0.008402439244474378,0.018713984287410522,1.0262978175404909,0.0016966786203043583,0.0010043558729311529,0.0006703538580464527
1120,0.0030630639794719055,0.009567486579393068,1.009568754381569,0.0007073776782750131,-0.0013463478830096237,0.0005010193679049101
1140,0.021544853420986724,-0.005048158845935941,0.9755913099018193,-0.001072652199586569,0.00020894296359889167,0.00036885915008548454
1160,-0.005646509601436899,-0.010025051745502089,1.025217460893224,5.8682028093508556e-05,-0.0007168544890967304,-0.0006136922763295199
1180,-0.006332310316440519,-0.009792777837437398,0.9831266513640655,0.0002503154391757416,0.0001694795470568084,-9.709633019591013e-06
1200,-0.007858316358328996,0.024569771048125126,0.9906133248123263,-0.0006912313633047266,-0.0012168250301707428,-0.000671187712432779
1220,0.0008523999636502484,-0.0024529912548880086,1.0132073264883794,0.0014816208818172088,-0.0017070133106696775,-3.5551632222255985e-05
1240,0.004332416573201578,-0.0033760512429077483,0.9802655102279606,0.00029207312349426864,0.0003221042533468728,1.4269024261914126e-05
1260,-0.017118932814607014,0.01817106786067009,0.9820867464690766,-0.0008418817000256724,0.0010340325402372857,-0.0006707228217671291
1280,0.007752154683545944,-0.013153345437304493,0.9759658351938296,-0.0006769825034857187,-0.0006200274371529894,-0.0015614829729360589
1300,0.012782586394081323,0.012157925520207594,0.9571478890440915,0.0009034147572178821,-2.9661822627202705e-05,-0.0003470698116358314
1320,-0.015073436011871623,-0.0003420913597558576,1.022029159692843,0.0011505012397309525,-0.0016523716988981368,-0.0013784051007350781
1340,0.0024354352451473413,0.0036629018968259413,0.9714923682205572,0.0006159729229305252,0.0003612217857503743,0.0006086688116783078
1360,0.002477233106866734,-0.006432288489657525,0.994476569535906,-0.001141396336341507,-0.0004507927466864372,0.0003508468379392265
1380,-0.0026881652881899924,0.00925237805872689,1.0070108133758369,-0.0006511478088235231,0.0004443722908017861,-9.589196251515907e-05
1400,0.0028794956084912666,-0.012201468523009714,1.047899695830773,0.0007844397274992641,-0.0010011765482256152,-0.0013017204363904352
1420,0.0037497948841958605,-0.003211205376060655,0.9993611144898618,-0.0016797437424880869,-0.0014795715327269134,-0.0009589716189997203
1440,-0.013898177906701533,0.013092088283884822,1.0096876177796643,-0.0009252217971282622,0.0010315785380036887,-0.0009749652851737355
1460,0.007074890938175339,-0.00021382365205722687,0.9831238317190075,-0.0007974059328557983,-0.00043213059649855603,-0.0015344966928177725
1480,-0.012340260697568512,0.0027297922347729025,0.9712578265932337,-1.2740569986251338e-05,-0.000988606693676201,-0.0009311245482584127
1500,0.012536803841605635,0.0008001348402976113,0.9719250895094546,-0.00046477045086879926,-0.0014814364335601418,0.0007126184786090891
1520,0.000444882540971529,0.01475790856375108,0.9793779313129604,-0.0015224527000086091,-0.00018901376359681526,-0.0005047645592131607
1540,-0.007267728157398755,0.024921491347983122,0.9715326031498084,0.0008319794973012915,0.0002481439394286891,-0.0005270249641020883
1560,-0.010765632491274251,0.0012516679240086976,1.0244242042813365,-0.0019839325686554395,-0.0014209106663698918,0.0009136603223308768
1580,-0.010614545696811044,0.0023549708040741368,0.9916685159272804,-0.00043772486330777576,0.0006578796701673047,0.0008243668102671893
1600,-0.01315999765987195,-0.009456332847024915,0.9597871225281572,0.00021989195217072272,0.0011834092867165484,0.0007092469181695648
1620,-0.009626638598998144,0.0007588007762246022,0.9813214340823357,-0.0012550460062178386,0.00038009703374820863,-0.0005449595283181857
1640,-0.0011575651885897252,0.0016585279049656386,0.9907836254591427,0.0007410018358041027,-0.001349477203274075,0.001280825335243454
1660,-0.0012982789391434522,0.0008852956552002108,1.0089827968155758,0.0017959175309374233,-9.028684680732693e-05,0.0009020101296450102
1680,-0.009109662825712335,-0.0011527399353170901,1.0150722598421094,0.001077719464919885,0.00027536517362121876,0.0016152243401861065
1700,0.009496446611403211,0.0016627356691015249,0.9925332569671553,-0.00035408312459475025,0.0005965359164127959,-0.0014404128217898283
1720,-0.013392009816755463,0.019956759150931522,0.9931898179776169,-0.00024198319494706622,-0.0001446952114512113,0.0009943453731428608
1740,0.015060737151909365,0.0031971453479507144,1.019640748740636,0.0018402385438853737,-0.0003930148980174792,0.0001472854182982389
1760,0.012496612801375633,0.01288795107610552,1.0026958582244894,0.0003046874978874331,-6.8126798299769225e-06,2.7140756243106403e-05
1780,0.002142650103142235,-0.021482692234388936,1.0436435276229414,0.0002179999407656687,0.0003432599626045593,-0.0001834535748593335
1800,0.01117204353430225,0.01576816273313624,1.0048622563954166,0.0011228957647429526,0.00030166288259623987,-0.00018586869900254105
1820,-0.019505090233931967,-0.012301556885821952,1.0118701793533096,-0.0007980561000656534,0.00017641247643575503,0.0008400891299845403
1840,0.0012416964314057733,0.008111622560177579,0.9714733776013664,-0.0023668473104112558,0.0018738200761432805,0.0009869360430030008
1860,0.003552439132354475,-0.022903141183095173,1.0440078655474436,0.001496823617691556,-0.00014429818183145715,-0.0025255879138167277
1880,-0.0050883345155323875,-0.0005078307736466515,0.9486452669432124,0.0007429475576990782,0.0008713911820378905,-0.0005706289401063233
1900,-0.0018879295376364328,-0.008482171173978129,1.0098016142694242,-0.0007589238104469486,-0.00016612747868609157,0.0015231479197332011
1920,-0.006437031654584396,0.007978013841091423,0.9781659004670509,0.00045466150529476466,-0.00010257638058179653,0.00034161448131191167
1940,-0.008730865396547027,-0.01715046930697814,1.0311517626175695,-0.0019014980850167497,0.001281471247514147,0.00032262582469449775
1960,-0.0013464390748798344,-0.009346333763005634,1.0160580473358278,0.00012624366584956397,-0.002099926378839972,0.0003916794853151749
1980,-0.005475908210950582,-0.0035791917558577056,1.0222179308406805,-0.0012530036485770256,0.0003714541125030976,-0.0014686064084524304
