timestamp,accX,accY,accZ,gyrX,gyrY,gyrZ
0,-0.020492060533639788,-0.006621653028674158,1.007074993198197,-0.000969496815374837,0.0011023662025690935,-4.973777056659385e-05
20,0.014985678971025792,-0.00802533668401052,0.9938848020848847,0.001095176543126077,0.0002597497563986476,-0.0012802986301274663
40,-0.01884167285789918,0.006226699625014343,1.0119655918055623,-0.0012224852770188535,-0.00029722857138763314,-0.0006121100098625839
60,0.018741975261276113,-0.002610180811069202,1.0104854939824794,0.00011024356068809034,0.0013469693871583344,0.0005699841712693719
80,0.004390395581505053,-0.0005629252206523985,1.0085851428267176,0.0008577917849384291,-0.0001609079959498951,-0.0010518354646373313
100,0.00042881704099252606,-0.00099044229976056,0.9771068660303958,0.00010585322060043865,-0.00016353457188352018,-0.0012558453250926048
120,-0.0011669612083135342,0.011465987390882037,0.9961959164007889,-0.001110264940924508,-0.0014117695737326098,3.593221032403408e-05
140,0.0004321504495742756,0.0049626905938096955,1.0002397272141297,4.298340793876679e-06,0.0008439624056623216,0.0002070285928878145
160,0.011568971219762667,0.018743409168657927,1.0416492779189592,0.00208621501582297,-0.00023412438856776073,0.0009582989589779463
180,-0.019968116500958415,-0.004918379689323368,0.959444675114778,0.0017180855763919592,-0.00018501534092555495,0.0010035935706810759
200,0.0006171612272500383,-0.0110722278450596,1.0027426785777902,0.0009257609927665315,-0.001065868776365043,6.34733368080437e-05
220,-0.0033839335993876723,-0.007730068256905044,0.9999323674807944,-0.0022671582328383107,-0.0006055118998731917,0.00042110725459473125
240,-0.016724144343521322,-0.0037244206121932024,1.008861383927458,0.001683000937908795,0.0004535631728402414,-0.0012434556140628304
260,0.003181689012759103,0.02017378882116051,1.017238920558256,-0.0017687818140679204,-0.0023053527220038106,0.0005779278681991852
280,-0.006668070942479419,0.0054938531780005925,1.0136454115021458,0.0014863341188583784,-0.0008045007764851088,0.00014222901426144802
300,-0.005615184155664447,-0.0023802486008069547,0.9793545214001046,-0.0020254538445870565,-0.0018236918143742411,-0.0006261670770001254
320,-0.0034029731113032593,0.0066079301882613,1.0031640871813894,-0.001664949321719879,-0.0007623551208901012,0.0008210409685165615
340,-0.00453465228179676,0.006584705204910592,0.9807771980526175,-0.0012109923319319604,0.0003369616230536136,-0.0011414250773098167
360,0.0028280614392772415,0.005365309049891346,1.0118961506647706,-0.0006272271389763253,0.0002844527728194585,0.0001298200253917432
380,0.004359258296296304,0.014910056302712043,1.011008702865263,-0.002398356100804108,-0.0009196228514812462,0.000770182745637199
400,0.0087909239358259,-0.017270805274447926,1.012459116763167,0.00043523682733403714,6.982220969543656e-05,0.0006754116072387968
420,-0.002292333292489416,0.008837194788560869,0.984042521655425,0.0011171348832055565,0.00036821527238215814,0.0005193804899195336
440,0.023766026606242604,-0.003949570006424228,0.971594297862484,0.0004806419744061207,0.0004165230941168041,0.0008649466110633548
460,-0.006351165918290483,0.007940803221022499,1.0128980266893972,9.133057231771184e-05,-0.0002048424203276981,0.0014605205179223806
480,-0.0009241802695946998,0.01151565458458565,0.9884945693996469,-0.0002845820001269029,0.0016775554025395567,4.5069337513320445e-05
500,0.005008578045922327,0.010312893379646441,0.9646701927218166,0.0003633531315285948,0.0015863288033759497,0.00022154114030097468
520,0.005803984268693118,-0.0015939118291036023,0.9896954099478459,-0.00064096223234533,-0.0005987094773940102,0.0020614699719264614
540,-0.001775027630498258,-0.006332537814468912,1.0371444525493358,-0.0007911189796845689,-0.0016515358837261036,-0.0012914737420217355
560,-0.014822839074341577,0.0075126530952176465,1.022596202948285,0.00025375024719303906,-0.0006416001162423314,0.0011217143365697035
580,-0.006284024724010714,0.0019469602107332713,0.9721139692032666,-0.001299848701076198,0.00033610845707455827,0.0005126058486407139
600,-0.0006087543101540528,-0.00786212103169096,1.000143595687979,0.0001897028003316601,0.0011138707284582574,-0.0017201668391800065
620,-0.005348757055366023,-0.011583968663281912,0.977251915810574,0.0008749725243656184,-0.0008737774351418326,-0.0010954589556954302
640,0.010851346373522513,0.006303707999978917,0.9878131589190668,-0.000818304611957623,0.0017918840107770547,-0.0011553398814242743
660,0.0014456036802674484,-0.0005318651084650554,1.0046249101005957,0.0020235710480979957,0.0011346549273916712,0.0010964465418340636
680,0.009033197437763223,0.009280673860077991,1.0206344045171616,-0.0007880055720137322,0.0009296850858433838,-0.0005863314429414584
700,-0.0031574156371689138,0.006678681603497553,1.0052406710334283,-0.001125701171145815,0.000946520803998803,-0.0018107309707810495
720,-0.014137484356377412,-0.010222021605979284,1.0074842305101082,-9.150482419211656e-05,0.00029098484836971957,0.0016040513295931414
740,-0.0067506473404811244,-0.0031621194040180973,0.9923376149311608,-0.0003678198878611593,-0.0011492639835532865,-7.750989551482472e-05
760,-0.00028057536148071713,0.0009075665201416128,0.9583098252069374,-0.000638146788675862,0.0009801952041894261,-0.0009625879484984399
780,-0.01101747286995927,0.01818521126344105,0.9992504478982656,0.00010071030481727011,-0.0013139711442920518,-0.0014820344121419054
800,-0.0024559236239383845,-0.004496220272131208,0.9607745280369356,0.00022759264947381288,-0.0022801601420328883,0.000768715886326363
820,0.015490686655891806,-0.002375822643293438,1.0085850614405147,-0.0003982166101756937,0.0006978873791099984,-0.000842100486863942
840,0.024837957773754204,0.0025477234905309783,1.0072566245702919,0.0003403304227448393,0.0004778016649965562,-0.0006274913716758335
860,0.008762133203916719,0.006756566103897465,0.9854100196474889,-0.0012156536348686615,0.001548597111194897,-0.00018877371955127684
880,0.009645488410459084,-0.007509927144266484,1.0011847022957845,-0.0005806429140471954,-0.0009530770231499555,0.0012007441775573344
900,0.018094346981977268,-0.018250139869052745,0.9876893136656916,-0.0016665010350643858,-0.001286545240957866,1.0699889303220194e-05
920,-0.0036213446078436824,0.00045244806945090254,0.9900685020286492,0.0012417572787688804,0.0009738741588375177,0.0011348657646936466
940,-0.005745389899468143,0.0026533112843528184,0.9816460857541369,-0.002044000269170418,-3.113115435908234e-05,-0.0017958919269107732
960,-0.002643298857720039,0.002782334836841773,1.0084976427562238,0.0009636221788608205,3.3356447803939014e-05,-0.0006002332736808706
980,0.00026053402894930816,-0.02576043488992809,0.9810081943543328,-0.0022126488659708382,0.0009255391665072017,0.00019755415332841397
1000,-0.01684953499505162,-0.01180001353870108,0.9883788287814371,-0.0006816453849748021,-0.0013076769578722466,0.0013813891406322864
1020,0.00695538494932689,0.0068128851611915335,0.9997423864748881,-0.0004133426320479936,0.00014089312730557746,0.0003865048110622574
1040,0.0032098907222021084,-0.0016603700035827031,0.9912822719445683,-0.0013674128739187981,-4.800059274163068e-05,-1.585983881274109e-06
1060,-0.019089488678099464,0.003408635586878513,1.0176424936767037,-0.0009054016496614375,0.000892029560439158,7.966328961303218e-05
1080,0.004000331925151887,-0.0006793702616116308,0.9757208565224805,0.001243629681124762,0.0007162673910242456,-0.00022770978067988287
1100,-0.003378336461246639,0.008651331061595421,1.020377488745825,0.000555451915715794,7.086877583852182e-05,0.0005113563061061096
1120,0.019598369262238808,0.008518712869217987,0.9831708959561065,0.0005404187542460077,-0.0003050658605592395,-0.0014321676752932682
1140,-0.022341998823055955,-0.006407525157027682,1.015943937587693,0.0008167399447761077,-0.00016978752404485427,0.000857696891280632
1160,0.012024416212333503,0.01292941532360664,1.0105555537455408,0.0014038374623272193,4.3065435018370144e-05,-0.0005769313182849346
1180,-0.0015202339975037042,0.0015676929843118407,1.037265518133376,-0.0005966704202512487,-0.00196703343970806,0.00026186320762236026
1200,-0.004627361605468111,0.0010878123850460199,1.0301560950672415,0.00015996488897220698,-0.00013335663390620742,0.0009605742195419394
1220,0.005458776329810749,0.012916152194005626,0.9874138580435895,-0.00023661685589920956,-1.9783161864538354e-06,-0.0007083625907867039
1240,-0.004500011329912865,0.009862083917659846,0.9812701748702342,-0.0006067081185598656,-0.0009029129249911258,-0.0010429248329791327
1260,-0.011414545543368952,-0.010287369547446166,0.9931478695323843,0.0004753953423913431,-2.0094295502617192e-05,0.0006718807365622428
1280,0.005851192767808737,0.003194364239193484,0.9991361593672609,0.0002684470880899499,0.00024160434314618158,9.527228953109318e-05
1300,-0.014607401727177243,0.0010573490437425035,1.025113795206906,0.0008824217209717614,3.735083816403624e-05,0.00047302831157965396
1320,-0.0015555110071302947,-0.002772109808820148,0.9792368808151942,-0.000780487755395291,-0.0007968839785262059,0.000985510550234043
1340,0.005857516669691936,0.008043490542646985,0.9998636227378495,-0.00036359227952732006,0.0011513208893808673,-0.00048280473008466154
1360,0.012541279937897554,0.0075013055144681155,0.9904876248943646,0.00023027581532461763,0.00012609876994468515,0.0010666747980977301
1380,0.02155327737180997,-0.0014580319043440075,1.0232328366480443,-0.0004609676394909468,-6.275777564339056e-05,-0.0008034172669251088
1400,0.014592169840129439,-0.015399226669183669,0.9983014286379825,-0.00023654165177241715,0.0008051812839765199,0.0005859704572751897
1420,-0.0034477589500913216,-0.0017428895384597417,1.0017943834131027,-0.0006943991504339314,0.0005080987981043542,0.0002859085014512899
1440,0.010244448454405617,0.004043590956060142,1.015759698947538,0.00018026413487686366,0.001985631359212424,0.0006117582734752293
1460,0.016560258116011372,0.014153590803405607,0.9775873613996507,-0.0006785297773757043,-0.0002672842412415805,0.00032795269344267026
1480,-0.005349457041967641,0.017672759779524427,0.9876566821560594,0.0004920626984497361,0.0002970283676797759,0.0019431821172421228
1500,0.014273417016617069,-0.0020954074532184377,1.0000097073840306,-0.0013955417379868948,-0.001749103476468072,-0.0006048341933662513
1520,0.014468894016250967,0.010732201025576472,1.0204654246967124,0.0009360232307354633,-0.0003874995262019586,-0.0011073229755691005
1540,0.000648716147948368,0.007452303375555085,1.0100771640663826,-0.0001304994421543471,0.0005880576095729212,0.0009256521760852696
1560,-0.010028813824371688,-0.007592009909862162,0.9837868073497725,0.0001976511778625976,-0.00036225976052015334,-2.560543921376987e-05
1580,0.006333806406913933,0.011025087609459987,1.032643551785872,0.0003046086155069662,0.0014380138868093715,-0.0019110879184931918
1600,-0.006449946888926875,-0.00463115602517027,1.016546381455541,0.0018490248577070032,0.000993239082372963,0.0007561969618414843
1620,-0.0027907795255409907,-0.008901425581221999,0.994221655439195,0.0007442013733420407,-0.0006352790644595913,0.00039360644187786634
1640,0.009749695238399263,-0.002788974921495364,0.9781258466580964,-0.002357920306238278,0.0009141231071753399,-0.0012048943493367511
1660,-0.009590049493424459,0.0006708012132970886,0.9833585507253682,-7.423858867829458e-05,0.0001234717443521636,0.0008431541992987097
1680,0.008516361705782419,0.016242830366089075,1.0045563062718512,-0.0003635046154996107,-0.00021253491571002472,-2.898638203849155e-05
1700,0.036887613814858076,-0.010623397558461126,0.9855173134247223,0.0004947375766443669,0.0001552884319324652,-0.0007977338868300404
1720,0.007238783690210047,0.005952560313095728,0.9920404135917003,0.0008900582694697698,-0.0006846169766868516,-0.00111628003609856
1740,0.001229910141269913,-0.02798516495643099,1.0362943698639675,0.0013082208613174775,0.0010742129446841598,-0.0019162801351478081
1760,0.01323220960679622,0.002735063413851839,1.031408384078152,-0.0004775121472550915,5.338927045993488e-05,-0.00045597482419785845
1780,-0.007660093383541253,-9.545758546519926e-05,0.9876712840178427,0.0005706092325327121,-0.0001663259532642572,-0.0012557294110580185
1800,0.0005671127959343955,-0.0033510165447367714,0.9833502902530991,0.00039347051426525656,0.001369646422292352,-0.0010311818419963638
1820,0.015046869988316945,0.011081002319091784,0.9780574160088525,-0.0018799781861936575,-0.0020050429053509087,0.0011590179353775346
1840,0.004429105790386037,0.016392535392614566,0.9882783387656793,0.00015289477782276325,-9.644549563008366e-05,0.0013463441676635564
1860,-0.020301397526858448,0.009960248146405346,1.009357881613186,0.0017750839768563445,-0.00029420125797180745,0.0006181019192704588
1880,0.004751700312469519,-0.0071540480339751834,1.0082366224418824,0.0005643376078203641,0.0008941477968938887,-0.0005637291680474153
1900,-0.007773284183302918,-0.0029289075733564163,1.0083145875307242,-0.00048492929793995997,-0.0016686724558268376,-3.5214629598123194e-05
1920,0.0007059653800925811,-0.024119449184228054,1.000354559959224,0.0004184465105362525,0.001762845670365312,-0.00024198815033847778
1940,0.009146121856852645,-0.005272873649037909,0.9710836366167791,2.9065129561295734e-05,0.00018844224025437448,-0.00028933250407990656
1960,-0.009793153186272283,-0.003124470963689831,1.0143028258752356,0.00023028188101241768,-0.0007796705327800973,-0.0005652752052803513
1980,-0.007832310401125085,0.017405229192390632,1.0254404485315483,-0.0009200679553968767,0.000541881099965895,-0.0013886266659779106
