timestamp,accX,accY,accZ,gyrX,gyrY,gyrZ
0,-0.0007269387222751536,0.01557190058783611,1.0088323100701513,-0.0007860318482949463,0.00026451161722275136,-0.0006323722292813226
20,0.02078436591473482,0.010607463842351483,0.9845345562054304,0.00015612815526845695,0.001224996880133676,0.0008481819719975477
40,0.010175540111770505,-0.0033017509111147605,0.9973337610735173,-0.00024115040793801467,0.0019052466243012606,-0.00014174641259252682
60,-0.005243365768934061,0.0004596654851464049,0.9920796899801757,0.0033460862599422134,-0.0008133369950007815,-0.0008202593637837948
80,-0.009555736707472793,0.015359389122794503,0.9818427926019941,-0.0007177298605188284,0.00011700937196037365,0.00010710244766034269
100,0.010786613698064119,-0.011475732657019214,1.003385005121268,-0.00022155712434153356,-0.0009182385696397297,0.0004810311993468758
120,-0.005317784969067525,-0.004536751327724112,1.026034661909612,-0.0014474232617141605,0.0011265401484605378,0.0008925973623320342
140,-0.0018504631987105314,0.008467804820528689,0.9931039904192716,-0.0013445948987030195,-0.001563222532926816,-0.0007760534864845193
160,-0.007960842028291773,-0.004152175907616289,1.0094060443179298,-0.0017710299610393557,0.00019566957869648403,-0.0014833598454482865
180,0.00253678385499605,-0.008780807914331678,0.9732388698888116,0.00015193609776839782,-0.0004773777415079104,-6.202100918728598e-05
200,-0.004968950186022928,0.0005525597908795279,1.0042151058227626,0.00035852314372030353,0.00012330471828390726,-0.0005675390881556033
220,-0.010812143470977502,0.019399165598378464,1.0110588694399847,0.0014388087966437921,0.0005047596800059972,-0.002947712624985573
240,-0.002913126043243206,0.008875450297943012,0.9944710726630227,0.0015525100558024137,-0.000499449522411495,-0.0008794764344473862
260,0.009341401873534196,0.004337632616192525,0.9558095440511131,-0.00033938269062881883,-0.001920457563395378,-0.0007440135938739232
280,0.0020356501221646395,0.00841717190212592,1.0148965307075426,0.0013314398939857097,0.0007797973363524064,6.743402119023443e-05
300,-0.00045509575593636015,-0.0050340628597182226,1.002587831720236,0.0011787597567348782,-0.0005868917302668997,-0.001152488323821303
320,0.005908637020831054,-0.002665196448335558,1.034570471997908,0.00029081269528009624,2.0026237791351433e-05,0.0002465422391541333
340,0.007277792817362078,-0.004276275883997598,0.965379755205953,-0.00020616660727005285,0.00032970681988676,0.0003260518712988106
360,0.0015343734336524183,0.0063900497608478735,0.9906014243516169,0.0005002197835052933,0.0004540588299987138,-0.0006412864154196209
380,0.00606208627422461,0.014064491844179619,0.9806951986930558,0.00017464210800171984,-0.0007075829525571147,0.00016588829805503827
400,0.002178274611097806,-0.0021625824957306953,0.9928422697312317,-0.0009910318260149785,0.002335648247649142,0.00030710604396357575
420,-0.018086208727469463,0.008553955472688154,1.0322316919469319,-0.000486810523005104,-0.0009574486952557737,-0.0007654199611692835
440,0.0020034694648717365,0.007302950376417878,0.9817217748774757,-0.0013094012357732323,0.0015734202658269623,-0.00017741516945917816
460,0.0021894838694764066,0.009126788664439087,1.0186916126826255,-0.00029947992111199225,-0.00043783392238613947,5.524924290566081e-05
480,-0.007816993615428772,-0.014807591134844174,1.0146538426591054,0.0006550093542487849,-0.0007663712857885365,-0.0011311282602529298
500,0.006881507501881159,-0.0006077872246135249,0.9990954333987863,-0.001258685107305387,0.0002416809767805246,-0.0002639561201300618
520,0.0036186836188809674,-0.013714823214516551,0.9872947160039588,0.0014060203600151026,0.0027118867947335677,-0.0003433694184389133
540,0.015963826457459262,0.011565541025099576,1.0353958212429035,0.00030855624182473247,-0.0012305737903832653,-0.0001455582981623398
560,-0.005997656829321816,0.025700686163348627,1.0106026416829965,6.767258103480318e-05,-0.0018992136836528785,-0.0004224367671795902
580,-0.008204613964427468,-0.009828104137151529,0.9839793645407722,-0.00033736972667175246,-0.00030241901191192897,-0.0009095746624849997
600,-0.0029596803353390782,-0.0021628553609350986,1.0148789058192542,-0.0014751765002574211,-0.0007476421735585797,-0.0006697385147383396
620,-0.0003909286782993077,-0.00038012703917352165,1.0328121888492858,-0.0015844490650831456,0.0003002433660670182,-0.0002842203486290329
640,-0.009439253242619013,0.012574623695606945,0.9826480893212582,0.00021930476437459045,-0.0003197836130937715,-0.0002054831128611339
660,0.003568964985373802,0.0005856887451075234,1.0364855451626098,-0.0003498252789102852,-0.0007680239944290332,0.001801041165166154
680,-0.004078806894539376,-0.002913648521612107,0.9990800255887992,0.0022063290244191255,0.0006327016420048751,-0.0019194803052613749
700,0.01726932738669112,0.010565394828981221,0.9838245910934832,-0.000965918622427329,-0.0010098963331635013,-6.234367799987633e-05
720,0.013530093244107002,0.004961379112562618,0.9736716469066322,0.00044835162573756906,0.0007008133229615408,-0.0007552551169498774
740,0.0009383495913724411,-0.012245937808742644,0.9920180955660108,-0.00047092821692644064,-0.0005432962500982932,0.0002965539106901265
760,0.0032275205829555014,0.004788653344064085,1.0023357150837577,-0.0004163204095070395,-0.0010666997655455668,0.0004324782521299005
780,0.003843613831054854,-0.021631891867616798,0.9933405092143655,-8.761146374722968e-05,-0.0003059992866068699,-0.0005956523870183077
800,-0.0028627225840136433,-0.002308295561627043,0.9795557051305444,0.00023509289617070308,0.0013692061521033984,0.00016491887700681383
820,-0.006449870058645633,0.010220085962677448,0.9937811457225566,-0.00035053069561976767,-1.8776696424099138e-06,-0.0017265645615476095
840,-0.004680606763268752,0.00834296489934689,1.0183404956046758,0.001157715264600515,0.0002796295737114926,9.44987123675255e-05
860,0.0020106829063569706,0.011511864878739696,0.9989527954628986,-0.0003363911648764818,-0.00021042249074974148,1.9972417866124604e-05
880,-0.019456992695366635,-0.006216318663773213,1.0192445460364843,0.0007735333875497618,-0.001999187576652938,-0.0011875429293970279
900,0.01599532711736109,8.200294973513197e-05,1.0018615569293823,-0.001187505507828231,0.0008834227485090679,0.0005524680755508894
920,0.008148410114383792,-0.01363015307840457,1.0190782547493276,-0.00037748185197889546,-5.616488772338306e-05,0.0015475183787197037
940,-0.021001800482851163,0.020271083719779735,1.0108575407382279,0.0002445900096258694,-0.0004914375085253797,-0.0006451152853530963
960,-0.0034252247326503568,0.006805288431308264,1.008305947944368,0.0007713229246037505,-0.0016274190852183317,3.69534481631375e-05
980,0.011130629300007251,-0.0013976247430036693,0.9813529601960184,0.000702423432321056,-0.00020328704070901693,4.8947848518719335e-05
1000,0.009744962470416783,-0.013124905539482238,0.9639689660745406,0.0008782772166013084,-0.00034293878498745887,0.00022821580198937894
1020,0.010492050748633195,0.045296222724131,1.0114009779754423,-0.0002138243758322876,0.0016075140262922503,0.0012360361278154009
1040,0.016611423002399477,-4.8865937296635296e-06,0.9775109286954088,-0.0005800233429253837,-0.00038957075518624963,0.0018146185938110486
1060,-0.0073220196324494105,-0.02035790004971646,0.9947947588673,-0.0006475161665924695,-0.0007092830236966469,-0.0013098312115206426
1080,-0.008178645562999935,0.004529564905809735,1.0226017494027386,0.0011784669815805406,0.0002968064211056727,0.0015168526661700234
1100,0.006607391286483049,-0.016810269261275313,1.0190119481196938,-5.058372805476984e-05,7.843285472545294e-05,-0.00041023931022801424
1120,0.008806014497183375,-0.006075457971012624,1.0173122730644404,-0.0005604430849155952,-0.0015405838354674126,0.001523829000156311
1140,-0.0002950303137211989,0.001088360055107868,0.966597440452784,-0.0007183182329793409,0.00012010121246554366,0.0003893382925533438
1160,-0.004924920439751043,0.0043470602067728105,0.9672571803157624,-0.0005499605889751018,-0.00014348741434199082,-0.0013891844915920194
1180,-0.0047454582208112245,-0.00886138692500203,0.9687244341442964,0.0007592539916366193,0.0008838380528736324,0.0007173280171159577
1200,0.003752415655878747,-0.0034408164985715167,1.0066177278823372,0.0009888598137377533,-0.0004365349809839776,0.00023702605351878057
1220,0.0011367224678332452,0.0008136167627715941,1.0150462660772983,-0.0006137501877537124,-0.002139328124593765,-0.0010463441719071806
1240,0.0008748509307622424,0.002257358386506447,1.0146186122830512,-0.00047666680143916974,0.0003321150264192061,0.0018910468214583262
1260,-0.005470878781627877,-0.005305788570646509,1.0217412355986122,0.0006509405616647471,-0.0006414244074500763,0.001255465520204767
1280,0.004674574281014754,0.012669078466645342,1.0014687198831551,-0.001052371415232647,-0.0013264659708931846,-0.0002787063925477486
1300,-0.0005366981904998376,-0.009484758907400099,1.010594093791194,0.0005661360260489863,0.0001275900033892343,-0.00019592305924485753
1320,0.0059623158532615215,0.008776480317930038,0.9849174097868661,-0.0006760700757501091,0.0008112456703139457,0.001552507341003143
1340,-0.00784320662964534,-0.003955513747693751,0.980574678958223,-0.0008431143913656811,-0.0003588904182955485,0.00031508074513871736
1360,-0.0012854430639211486,0.00654153859866084,0.959785472493248,0.0008079782833434482,-0.00016174461070261295,0.0010863303859624137
1380,-0.0038179722659699667,0.019522689424654512,1.015384459375327,0.0002486137714834535,0.0003924495048083052,0.001896815664626654
1400,0.011103434732596298,0.0051738077263444576,0.9742388972918025,-0.0007484273288747833,-0.0009157885605705104,-0.0007274453185111183
1420,0.0021248143263237064,0.015428462116574278,0.9853266339055529,-0.0005299755483406053,0.0017783555787112412,0.0006585896655344056
1440,-0.025795403666461762,-0.017444860368067562,1.000637742703579,-0.0022036208331631998,0.001881934874425191,-0.001244555426225555
1460,0.005231990604152617,0.0035923873921360305,1.0052850569499052,0.0007737330807793278,-0.0005317837488224343,0.00011105700120490314
1480,-0.006944843431692839,-0.01752293459598208,1.012643083061704,-0.00047626812381863554,-0.0005249143768364838,0.0005730909251694827
1500,-0.0006243211877439591,-0.0019952075048896116,0.977813471794497,0.002100180400287872,8.809046893056761e-05,0.00027693075606309
1520,0.009639932571539025,0.0040893337232681,1.0049449547117182,0.00017960623299097362,0.0004029856875546047,-0.00076423410295263
1540,-0.0043363024396270876,-0.018518306136201947,0.9938135194203975,-0.0007179447072641572,-0.0016305502893581997,0.0007446400321552894
1560,0.013689428816707563,-0.0006884083386081027,0.9783872424314359,0.0011203027751793152,-2.2287334736231228e-05,-5.087168208356947e-05
1580,0.00017838504970211263,0.011933192522730202,1.0008651943029914,-0.0005661766994451851,0.0009541666897932002,-0.0008829544647358381
1600,0.0021126478266237786,-0.00029037855641323443,0.9953175132037765,-0.00022180334772612076,-0.000783961797249219,0.0002581739766736134
1620,-0.0017149304932314944,0.005863323023041265,0.9924265996524081,0.0010288454875942354,0.00035331059485731316,-0.0010620689371029022
1640,-0.009062403649643528,-0.0024120233290574546,0.9695053112270778,0.0013100987363797861,-0.0006817839776950618,0.0006184558724007725
1660,-9.900687589505048e-05,-0.003391777900779261,0.9707641656385422,0.000711416498724056,-1.891494220767552e-05,-0.002125650177848472
1680,0.014355046238261596,0.009581173208443258,1.0437200437791967,-0.0005958512093512103,-0.00017540863104993282,0.0024736958060555558
1700,-0.008485773933100994,-0.006466195010367408,0.9800068980646846,6.425405027482459e-05,-0.00014300462922078993,-9.035130344717674e-05
1720,0.010519626337546299,-0.010845129987526278,0.9994232418748514,0.0002690925936209014,-0.0010615169027230577,-0.0013912116080806397
1740,-0.002837109167921813,-0.003348964598423275,0.9979103881886501,-0.0007350323474386019,-0.0003110145728205619,0.0014209820417508323
1760,-0.0036768049888930587,0.005692783128732415,0.9912008024088366,-0.0022164267567827034,-0.000607632452719953,0.0012248044915950378
1780,0.007742759720372088,0.00874668469779555,1.008798826897188,0.00010011271824600684,-0.00028119456731060606,-0.0007336756247621858
1800,0.005317157603753119,0.004103544813762894,1.0103923806073294,-0.0015839972872984222,-0.00019763305309317727,0.0015370865291269421
1820,0.0026565943163022357,-0.001899081117600654,1.0442214480447338,0.000939107518151714,-0.0002793806643783509,0.0005056973934700481
1840,-0.0030579991275837015,0.004033319690896394,0.9866795883744711,-0.0009140441941993987,0.0004964889701855864,-4.085014591308886e-05
1860,-0.007308156461883501,-0.000316805305723403,1.0218475625718417,0.0014980132855332373,0.0006966286057191831,-0.0008145205296278663
1880,0.001065192722943842,6.619093792287869e-05,0.9609650495913385,-0.0010621237135589573,0.0011421409395427952,-0.0004181184645903678
1900,-0.005905147503236451,-0.00968293462194007,0.9973675765515134,-0.0005412174734828972,0.0002839636232216445,-0.00038979958886341455
1920,0.0013165901385067775,0.009234228059722476,0.975735399890917,0.0006867347920396973,0.000787844337090665,-0.00011336159017891588
1940,-0.01668164540641016,0.0010341613593500376,0.9841689338671163,-0.00047298882796521465,-0.00022196992906907273,0.00316170145184745
1960,-0.012740569420173944,0.015404414238714921,1.0042667601533053,0.0003850020667623285,-0.00015411156242738734,-0.0009548664578058098
1980,0.012208218360295366,-0.013410877128770973,1.0013148436326438,0.0009935901097338378,-0.000948614434479274,-0.0009605168806103961
