timestamp,accX,accY,accZ,gyrX,gyrY,gyrZ
0,0.015415784781838422,0.004283782645609606,0.9966060412391505,-0.0011644649093251673,0.00018921535637297953,-0.0003984638558726577
20,0.007459805503337763,0.01671535511561615,0.9813684865803507,-0.002952989654605141,-0.00044015552814779667,0.0003239685271709238
40,-0.005772328398970441,-0.003025553149959665,1.002611855322475,0.001158617618712822,0.0007830763182935157,0.0003342919741905687
60,0.018169189409462282,-0.004133936913958315,0.9954010775170333,0.00013626272904715617,-0.0010686263235188084,-0.0022825301963611427
80,-0.0112795342728475,-0.0003183501932123503,0.9665336462672725,-0.0011634247426019408,0.0006998570175577691,0.00034962146662962735
100,0.007270896723765299,0.00032924568040896304,0.984282757472378,0.00170388995193716,0.0008169860776268497,0.0001401281611539851
120,-0.011149835692615238,0.004673855131670099,0.9887415407333457,0.001322264739866734,0.0004954379962598549,-0.0014541816569269865
140,0.004380993965689367,0.008663204798352512,0.975910739212976,-0.0012933944638813262,0.0011523224262418353,0.000625896577218556
160,0.002487085910610256,0.005873530130094486,1.0074585429560268,0.0007654430576328719,-1.3975475219939068e-05,-0.0006455444288458849
180,-0.006553427283011036,0.003664065134835256,1.0086980722255994,-0.00017333201494611273,-0.00042042209668626934,-0.0006054665566579648
200,0.011635752580690994,-0.021186015427823352,0.9911150161410343,-0.0019492512779169867,0.0005862886015421332,-0.000795239694932812
220,0.00019551426916057036,-0.003469963745028999,0.9926909879194338,-0.0006305587481909559,0.002053197984339077,1.9888722561651704e-06
240,-0.012804812229153766,0.0029695814580260917,0.9927952608901464,0.00016180962738442082,-0.0017866063065953809,5.190218282336295e-05
260,-0.00763121584149591,-0.0019453115130283443,1.0329358149327488,-0.0006774729465566307,0.0008610038801764691,-0.00047637203853426554
280,0.006171060472273087,0.01137196050507176,0.9983229258304601,0.000667632191914884,0.0001309352306292112,0.0023549519855955445
300,0.003039167171636293,-0.0041040894067097535,0.9928978338118297,-0.0012924589629686421,-2.69747251162605e-05,0.0008859262443475457
320,0.0028038641773242895,0.010708821620603255,0.9697207228009407,0.0018006772336359863,-0.000622397884843834,0.000696070827290699
340,0.0031381523358306163,0.0006550718035968383,1.0199691029439382,0.001830411571243506,9.983347374966958e-05,0.00025069301258953344
360,0.0008692137684872566,0.009349371180832398,0.9985487827165113,-0.0010767863337373818,0.0005480741231804571,3.0129619445175088e-05
380,0.0030668574665319325,-0.0010384132638429247,0.9864281929758272,0.00020090566295136782,0.0009800597272487809,0.00023506147344111292
400,0.005757478504403029,0.006386570183835799,0.9939596034922434,0.0013393966032392384,0.0008111886537235586,8.032934284208741e-05
420,0.008381152889295846,-0.002755042294820653,0.99843946952666,0.0002947717849598116,0.00013310770134763804,0.00027041163924889776
440,-0.01711031628313026,0.013278301386193238,0.9934515047711601,0.0007977662640113874,9.313234171208082e-05,0.0007784636353049153
460,-0.012036096505492373,0.010544952162926278,0.9853248332370025,0.0007278284694491773,-0.00032590625650398775,0.00039292537615720816
480,-0.0071126987735387675,0.003925210356547291,1.024043911306497,-9.12307277634188e-05,0.0002801897253481697,-0.0010061331153641657
500,-0.008677508329230744,0.0038379211336924224,0.9916910624711445,0.00029129404504736606,0.0001795122097958935,0.00018091661117236225
520,-0.004360817300075343,0.00042935176341667185,0.9777986868950258,-0.0002036199484364024,0.0019685268376136654,9.298033001274672e-05
540,0.01398221147693005,-0.004788007505856979,0.9982157812306819,-0.0005210650667805214,-0.0018261582313544812,-0.000301498578492363
560,-0.01201371617084116,-0.02848244580634463,1.0085303951620879,0.001147240558542226,0.00047572379446815684,0.00041037707302331067
580,-0.00016161749816424786,-0.005484474126327579,0.9935199034313158,-0.000542018373494212,-0.000575190213696605,0.000985650222708291
600,-0.01484027824377014,0.008271635946938954,0.9694170418628908,0.0006498757283353286,9.000066286113842e-05,0.00048601702616896835
620,0.011138340966558045,0.021804863422628395,0.9990036638049313,0.0022709055325184717,-0.0005992488215992781,0.00012108070345062246
640,-0.0022158923645793976,-0.0007898387042933777,1.0037967783837478,4.3889163728260245e-05,0.0012508899179948497,-0.0014229002499863378
660,0.0028411389721362907,0.006835481431228694,1.0055037813406424,0.0002655737594900426,-0.0012647790990159245,-0.00016505422913666533
680,-0.00805524736452016,-0.009925280666803475,1.0018733053732227,0.00022932644018203445,-0.001603703611957779,-0.0005991526882048016
700,0.0032063632037710624,0.0020435505744007968,0.9971351781731209,0.001767198788953207,0.0003523096114240391,0.0010138322378057394
720,-0.00036741321008806633,0.010638723739894409,1.0121773879776812,0.0007817524388546074,0.0009498990487321522,0.0018073379224588482
740,-0.020311689807935566,-0.01553627956596902,0.9743195740803334,-0.0009894252559944764,-0.0009993426836737778,0.0011310860692010651
760,-0.0001806720667904248,0.008192743257285648,1.007303214281478,0.0010415186773194173,7.122752923035781e-05,-0.00018341858732558956
780,0.008054239251795148,0.005060442125369138,0.9897509906970625,-0.00035856681591341007,-0.0013625998245769108,-0.000797323285107783
800,-0.008746798201259377,0.00838695047061513,0.9875815166421236,0.0010955516232733695,-0.000127008767509186,-0.0014615342912377035
820,0.004368027549295495,0.004254686445838982,1.0216514187008932,-0.0005049204518604026,0.001197223960442071,0.0005271242728075523
840,0.0019797239819083403,-0.015431847694285874,1.0361056014151104,0.0008156066916545368,-0.0010844361757065988,-0.0010832748332837868
860,0.0017336183298630762,0.004209974368841729,0.991379879683229,0.0004328611196958635,0.0013179111644305277,-0.00048038832397382227
880,-0.005636093922821041,-0.008106971995048076,0.9740301402204015,-0.00044814498340519905,-0.0004607175369958475,0.0007600080268773062
900,0.02491731007831586,-0.0003650131777836745,1.0421839888436528,0.000992403625747712,-0.001192450124737815,0.0013748504358139521
920,0.0123392938605934,-0.011676941381098887,1.0043597636172483,0.0009308149582379351,-0.0011781221473049271,-0.00024105180144218095
940,-0.015390226109352203,0.008096454670833048,1.0194362648409097,-0.0007131389696732419,9.758161597163928e-05,0.0003180068587296705
960,-0.016685521155585133,-0.005507884821119985,1.0222387136246354,0.0007527882709866059,-0.0002358351599737874,0.0014159099446133258
980,0.014301404102234188,0.008704521194757214,1.0067984311009894,-0.00011387765278045401,0.0014005130381432084,0.00036162057715174637
1000,0.00907267712953524,-0.00863298213908229,0.9632388970098202,0.0012946763217420803,0.0005562903757672147,-0.000805836438776908
1020,0.006681387173392171,-0.011122388427199537,1.0004187658527524,0.0008371970187241805,-0.00032272703396150427,0.0008892409357795832
1040,0.00856039186113313,0.001664656907612439,1.01753300169888,0.0005631540967304988,-0.0014367322167586898,0.0005606822897905502
1060,-0.017420477413484754,0.015180150512680068,1.0147879914286138,-3.563904839503922e-05,0.0008209816338675746,-0.00040111973703132743
1080,-0.0049317177334733345,-0.0014132321066167603,0.9927372039920058,-0.0008348541487480486,0.0006369557500786551,-0.0015070773933095192
1100,-0.004756997351002956,0.018239364593533147,0.9855686091442399,4.8533820922536753e-05,0.0010094274336176648,-0.0007402292163582326
1120,0.005384256044051977,0.004501509304732257,0.9616810494081914,0.0002879399894747471,0.00034872867959427135,-0.0011552498905735592
1140,0.007208185582467281,-0.005059515181748766,1.0220210420697478,0.0011228340368087614,0.0009922141687306433,-0.0003768362484890061
1160,-0.013425987317200912,0.007462232187283246,0.9811001108176163,-0.0006920610757176882,0.001489348127135452,0.0018639175610683995
1180,0.011964749702024801,-0.004192670516442496,1.0363148047855688,-2.4317976471592147e-05,4.3389849018493314e-05,0.0011600339914087736
1200,-0.01003705748554878,0.006086543927025333,1.0160561919686775,-0.0004090080934197141,0.0004887727356017255,0.00035477013473994394
1220,-0.01197917756504774,0.00724843289284529,0.9882837420879342,0.00042173685323095987,0.00025542403491680233,-0.0006129235600122928
1240,-0.012517991339315367,0.02788739090249728,1.0207406306247668,-4.7180502501947644e-05,0.0007151023180231328,-0.00043983438616830133
1260,-0.005611749879797794,-0.0052202288372022836,0.9794719768352971,0.0008068526915678867,0.00017167881874142097,0.00016488946592752238
1280,0.008020476047680703,-0.010987594453668816,0.9695959525525492,0.001155702234224281,0.0021632444193919174,0.0018959199651400179
1300,0.01608021478921537,-0.005918580998253199,1.0440048263377817,0.0003386672670644555,0.0019040581580197422,0.00022948021551227256
1320,0.0012584702405684781,0.017410793235301193,1.01253972641751,-0.00024156049226994566,0.001468176976111203,-0.00043521860230588314
1340,-0.02267004880459421,-0.00026343442029266374,1.0002676140937459,-0.0001703191144839092,-0.0005226673106919449,3.9541197647696407e-05
1360,-0.0029300643183104366,-0.021789379637894526,0.9806774995468027,-0.0007492552482309395,-0.000845535526175195,0.0007124238055614505
1380,0.0031582688795144826,0.007229493159470298,0.9760220898334109,-0.0005874810273302269,0.0008085716844119082,-0.0017077471918583035
1400,0.0030465032662456886,-0.008566320678911233,0.9619889696711269,0.0016976895613804892,-0.00028922499143743034,-0.0005582784763779144
1420,-0.004487706998214729,-0.00584557289355751,1.0109668353537786,-3.3657934209376315e-06,-0.000982667508107612,-0.0010380371345582778
1440,-0.005948471744043348,0.0009387595808796131,1.0227490045453278,0.0010492942402715222,0.0012800061902203059,0.0011854457904778787
1460,-0.007321702245027314,-0.022424986199097316,1.0020962798555042,0.0002200057725033048,-0.0007211203174674341,0.00023035866008843094
1480,-0.003927084372595707,0.00862624399644916,0.9804864772461706,0.00039835422067939296,-0.0005686766172575406,0.002493968809800046
1500,-3.7914973904305376e-05,0.00136884326460092,0.9725897987705707,0.0013472333900404216,0.0008103768574684216,-0.0016841886755050654
1520,-0.004764236446591684,-0.014375409745674958,1.0203113428005393,-0.0007762408280440773,-0.0010778225648405506,0.00017251970052128998
1540,-0.012473641241610751,-0.005682663866363625,0.9958702614593421,0.0011352168086008606,0.0005530039780935067,0.00044978808014589113
1560,-0.011799210156186101,0.01252100613361426,0.987941405557033,-0.0009763359191094683,0.0010371128743608834,0.001876515796513166
1580,-0.009789379619019295,0.002516572460757888,1.019286380425487,0.0006118021632674811,-0.0005098544780013616,0.0018112887703903157
1600,0.0020113347920211007,0.008325974648763824,1.015420503265673,0.0011915913413095296,0.0008189552073020503,0.00043065511644610797
1620,-0.0065611444444108715,0.0025192469538184393,0.9989342694955218,0.0005812203703445981,0.0010186922889949997,0.0005558658015652798
1640,-0.017048939991575526,-0.011711801580273434,1.0044177432384935,-0.00018344490737392695,-0.00013683275393589866,0.0009561614571933659
1660,-0.00017099848786053743,0.008941926575269992,0.9852864129103748,-0.0004198421464547558,0.0002287753436100934,-0.0006291747361980432
1680,-0.007243917158716076,-0.0007628283199857814,1.0305810997508027,0.0005447386717640173,0.00029414081470192254,-0.0009328085901198208
1700,-0.0008888026767508174,-0.013433867538702774,1.004889863566009,-0.0007786991859051364,0.00017040086790627787,-0.001565004264255518
1720,-0.015155639653336229,-0.014736828301845544,1.0099659370942362,-0.0012798630101461769,6.990992496818803e-05,0.0011750858677407423
1740,0.007535705449465959,-0.0036803223522174316,0.9640843902598788,2.471196442958303e-05,-0.0006698139621501797,-0.0015301435239342127
1760,-0.00045736202612590006,0.012568500328203438,0.996105789357976,-0.00010633662884840825,-0.00044514080136785994,-0.0020369656016162455
1780,0.016870990379635412,0.01285320452698883,0.9923064775524649,-0.00010485264923892234,-0.0008405772398310788,0.0008194292156173071
1800,0.01903099957595068,0.005809909698063716,0.9759562274924082,0.001477169254026691,0.0005401225042578257,-0.0012677600233000224
1820,0.0011476506474863578,0.034372895649473524,1.008585649096388,0.0021482495174143306,0.0026943801471660082,2.0378068633543335e-07
1840,0.008832485209057654,-0.005909599384815945,1.0143377554227113,0.0022791435291115263,0.00024359550642377056,-0.001011483579739056
1860,-0.000929510195092553,0.002251980419206885,1.0086397219262233,-0.00048606019292177466,-0.0005094093086018698,0.0010011246300809244
1880,0.0018062247859768673,-0.0056181969554550395,1.0159651427931051,-0.0001622559430993634,0.0007842705707885511,-0.0011597225989335362
1900,-0.006465799092911665,0.0032162237596604737,0.9888269525402525,0.0008269928478070966,0.0005925374622571831,-0.0009169581764538567
1920,-0.0017972004341104209,-0.006949094206651299,0.9854924137325715,0.0014219762055912685,-0.0005369554450203597,0.0002560317612817998
1940,-0.004173651541125257,-0.011221204332329808,0.9994057479239138,0.0010210897715786657,-0.0008929385568918438,-0.0007390754021052147
1960,-0.009077443021833843,-0.006210966934721475,1.0184932752978033,0.001027901442639562,-0.00024490594192486955,-0.0008917424573574634
1980,0.013238434203270066,0.003179521681762278,0.9783483691791841,-0.0006405498619639252,-0.0006262800914873618,-0.0006036408219525518
