timestamp,accX,accY,accZ,gyrX,gyrY,gyrZ
0,0.019992573920390874,-0.0032460889798944428,0.996210274230787,0.00018961453192638356,-0.0007637742629264894,-0.00048765782052018154
20,-0.005177281312943402,-0.020203302587046675,1.0244834099982896,-0.0006545563051323767,-0.0008259596985610348,0.0008464656702971519
40,0.030869841134008782,-0.001741155903392235,0.9854828202826631,0.001947487935943358,0.0011031107753588752,-0.00011737624534244238
60,0.012652758621657365,0.003936054830393436,1.0125072686836827,-0.001745299518685916,0.0007572682806955191,0.0003494509791734163
80,0.011006429928897112,0.00856298739499734,0.9995715479676838,-8.281988227594509e-05,0.0004280628162776016,-5.47913466754141e-05
100,0.0038479311932064857,0.012028974532660336,0.9819614704598091,0.0014895199974757655,5.065343406827285e-07,-0.0004097422439544755
120,0.002625829432472451,0.003067486131121382,1.0189202527775423,0.0013515762742045106,-0.0007631064742395386,-6.547262442438562e-05
140,0.003709960883812644,-0.0008256225570196724,0.987740962107976,-0.0015033069232626814,-0.0009733999618830726,-0.0009907546113276506
160,-0.0013224469018112033,0.009709387837936569,1.0053106164769994,0.0028162301009444658,-0.00034282648594040517,-0.0005542036955607552
180,0.000842425223553308,0.0024936781225898437,0.9848393798470727,-0.0018545496927407405,-0.0001979944782187882,-0.00014409164857941527
200,-0.006832272468437951,0.0013189499538527373,0.9877798195642317,0.0009691313221155447,-0.0014010537634365028,0.0017439636442399646
220,-0.0005476673780215377,-0.02032654043911904,1.048391839898135,-0.0008125975620106514,-0.0004555291073304011,0.0005069921960328944
240,0.012533442559327175,-0.005871084059610533,1.010613362929519,-3.096768381137448e-05,-0.0008137958467416802,-0.0006355792986150755
260,0.005156034697944036,-0.011048413521401592,1.0035075288924404,0.00012217238985379018,-0.00037454841568080856,-0.00015843717789913497
280,0.0054867234034214375,0.01461744574842011,0.9870350579960453,4.747962058385826e-05,0.0008222325254731864,-0.0005421409882293821
300,-0.011462328627043284,-0.015186915886037862,0.9972867869616187,0.0017304596447287668,0.0007699624972166312,0.0009186381361192654
320,0.005562567327403839,0.021473561123758977,0.9923488665551277,0.0005129110460049631,-3.0316818812554224e-05,-0.0012619700331902462
340,0.0061735195859180195,0.0032447286454125243,0.9968203193848025,-1.4169483400727902e-05,0.000689412777543473,0.00011724980845645875
360,-0.01068489939951682,-0.0034655166241411685,1.016373547937219,0.00021136268727794868,0.0018664433307886371,0.0012375446172218632
380,-0.0024295068597034964,0.008218767399905229,0.9836557447498825,0.0012625743468199883,-0.0005086716118166924,0.001132152300763301
400,-0.008574595323820499,-0.0034533197020143727,1.0140448405719706,0.00035477037538786865,0.0006800374143977957,0.00030234108161367006
420,-0.0083910581276658,0.0012813184263476534,0.9696911345865205,0.0006210511558467572,0.0016759831259217284,-0.0003365907104245902
440,-0.009861292694439945,0.0013126572847684825,0.9921771416098315,-0.0006189247701160154,-0.00036068969928149423,-0.0006379747601764678
460,0.012847366234356299,-0.014417580338898534,1.021809391415797,0.0005001182296782594,-0.00020045360874704958,-5.750420673195909e-06
480,0.008716322941658453,-0.0037935872537643647,1.0154223517039465,-0.0013978062397276558,-0.0019368794706079145,-0.0014146261647915693
500,-0.01178604428094807,0.023279630772776033,0.9918988123492881,-3.087236763267482e-05,0.0012788240686807497,-0.0014528159901075826
520,0.01501370580517945,-0.005142681962383443,0.9930497256148346,-0.0006817966652992632,-0.00021666636727446116,0.0003826707615953059
540,-0.015597311753764756,-0.006144120772335479,1.005657716283496,-0.00044855101198346467,-0.0011822941986890988,0.001695036150478635
560,-0.0066370238564779594,0.00876542443218106,1.0295438373709158,-0.0022879594143777825,-6.589786430534112e-05,0.0007869315848684107
580,-0.005227637493624632,0.017319819373150892,0.9546018833095478,-0.0005772412527002762,0.00013203203718295487,0.00023920564830719608
600,-0.003594348873094548,0.0062032127116649375,0.9844693280839567,0.0007656868609968542,0.00020444671113414463,-0.0005407201170654765
620,0.006032125374879094,-0.0004537480118328424,0.9788318987793687,0.0003765103191922207,-0.001617701490938497,-0.00019678341468070464
640,-0.0029798611183680717,0.006534093980137723,1.0175172684834872,1.923646215610289e-05,0.0008557991307601274,0.0009868803298414156
660,-0.014450373790272917,-0.0030673022622352388,0.9690590912702539,0.0015280979953606125,0.0009897390415392455,0.0010557193784964637
680,0.0010475207559131968,-0.01129807243637365,1.0113729814754693,0.00011765476315822251,-0.000257886169712827,-0.0011172720043604815
700,0.013708773459986895,0.012174070088186297,1.0411722408160453,-0.001300659276610192,-0.0006191395648127061,-0.0010762451801357552
720,0.0007371710065421752,-0.009198461194611781,1.0094390925304526,-0.0013364616710950213,0.0011003473113255248,0.0007827452336509929
740,-0.004481102061803207,-0.003912908730140618,1.025009574303497,0.000953397885183204,-0.0008286505427917204,0.0020019796690815155
760,0.007710237404522234,-0.009049676294054513,1.0292838731995129,-0.000393367063108352,0.00109364718927898,0.001348723290117309
780,-0.0014058390251403606,0.013405247659188189,1.0516616390243114,0.0012525067926054385,0.0008306627658203591,-0.000851994279233556
800,-0.023712700394909296,0.007444414620604095,1.0253283396848798,-0.00029536084016525165,-4.972341273919283e-05,0.0005691772767062302
820,-0.002142561879029301,0.006841164170957865,1.0083870787321854,-0.001017856722668775,0.001078114620767967,0.00044637838717808933
840,0.016335591433687534,0.007445494067141706,1.0103003845204437,-0.001570883120995952,-0.0012074228399291103,-0.00010717386649713308
860,-0.01739825723133623,-0.008035244675302661,0.9551422983276604,0.0025346108696671092,-0.0002815444087283682,0.0012979946231924955
880,0.0015854392190945657,0.007749389823130568,1.0073583732376992,0.0010074082771265977,0.0004948938570977059,0.0008313618222266342
900,-0.005886832171518392,0.009075896472437365,0.9736495773660284,0.00010930408958651019,-0.00032046776002177783,2.8325756237194486e-05
920,0.011930029099025326,0.0035987725207421305,1.01169313528982,-0.0016720588488318682,0.0005499402220561294,-0.0018270387797744317
940,-0.008503349495427763,0.00505042610682553,1.024166442090111,-0.0009356226477316009,0.00029950908978643837,0.0010551594996647475
960,-0.015605549909866751,0.004328337258707152,1.0085911033887167,0.00022943931782211933,0.0008329283943140736,-0.002005367140054243
980,-0.006397667156539574,0.007299095292240715,0.9715032422207724,0.00039582788473586667,-0.0006206883294192066,-0.00048538271712267664
1000,0.000470381101613057,-0.0015347088180087543,0.9870751778509043,-0.0023258847576235883,-0.00028272571170696403,-0.00025529511966602774
1020,-0.013097362985488026,-0.0010643407230418568,0.9800894760915342,-4.58797778942291e-05,0.0003459433110095827,-0.00017800603347927228
1040,-0.01307280400191829,0.008842699639177458,1.0074646766046684,0.00024733519861033104,0.0006492888788336207,-0.0004663025247150338
1060,-0.0002465734866970978,-0.009032427258859901,1.0050206903796748,2.3819030564487437e-05,5.9625732819691084e-05,-0.0008373303700731957
1080,-0.004421377810089533,0.008597620877117079,1.0149222981948733,0.00045338943063142424,-0.0011452450445947142,-3.0163385738581626e-05
1100,-0.011619056832931976,-0.016447999413090702,0.9817789445026932,0.001109838876132965,-0.0007992225070857123,-0.0006197182858687468
1120,-0.006073541265904154,-0.0251650082663937,0.9926217244278129,7.220444772829988e-05,-0.000676165001677194,-0.0003131866371918984
1140,-0.010029294041000992,0.0004578130625329427,1.0124265776017827,0.0008623295971634401,0.0003560141639911143,0.001204894489580916
1160,-0.005081546492621907,-0.005653230108997036,0.9955030250755065,0.0008051513565867619,0.0007111483015856722,-0.0007007689360555647
1180,0.00201872434854132,-0.012439192126225391,1.0238491790704725,0.00020117935140500742,0.0007958127831056805,0.0020911017675636833
1200,-0.008954723245528562,0.0002790774696385448,0.9909819434688938,-0.0003420702594314148,0.0014090018418504403,-0.00043734450688074315
1220,-0.015776401766936267,-0.0055843471431148,0.9931768875380461,0.003179201120269804,-0.0008261005686521877,-0.00015063342227849007
1240,0.0005373431944427981,-0.011407044894155125,0.9837079393820195,0.0012682104369910535,0.0009080908823062666,-0.000810475895033754
1260,-0.019591437935898796,-0.014534105121334033,1.0240314562757389,0.000840185025384273,8.808083779685577e-05,0.0006354763194774065
1280,-0.011662714988182686,-0.00539178604685623,0.990136431057454,-0.002361585938119668,0.0014570508333611159,-0.0008693049483694621
1300,0.0013028264197720155,-0.010088198267058398,0.9678352180831403,-0.0014729311625644615,-0.0011836514599060316,0.0007088814726679714
1320,0.0010090665167150881,0.009253685047522978,1.0137944356975832,-0.0018178343563243471,-0.0007132668825240979,0.00031832775218558154
1340,-0.0008248425778763648,-0.002131560946557983,0.9800505456300391,-0.0001414575478748041,0.001000945778953627,0.001321825858126704
1360,0.0011378274213538115,-0.0027436040167614978,0.9916540256765991,-0.0006878167138571824,0.00038665015344275096,0.0001560588116268881
1380,-0.013870134627599175,0.009039889429585182,1.017969522004478,0.0011346546731049556,-0.0006162752451892098,-0.001414188400502829
1400,0.008190127655725028,-0.011769096088195912,0.9975325104007208,0.0006469828994502013,-0.00028988465734112285,0.00036434099331401806
1420,0.01124702401481497,-0.0017409231405881994,1.0029475830327879,0.0010728926019603433,-0.0004265700672586981,0.0016975464118187198
1440,-0.003907073858690583,-0.006500496928373709,0.9869560871240552,-0.0008274625497417252,0.0016024581373647287,-0.0004191492300548173
1460,0.01620818461640492,0.006770847655214989,0.9454594901752518,0.0008765005757742743,0.00027079058353546916,-0.0035726205823529084
1480,-0.009553356266911185,0.005586600117914648,0.9518723525672202,-0.00034343864029814594,0.0002679318506292809,-0.0010171327922035935
1500,-0.0020237659748804336,-0.004371709815642575,0.9846950906936467,-0.0007754060887253535,0.0007476034540938412,-0.001978659046978956
1520,-0.00965593512560529,0.016747638204186094,1.028700019220269,-0.0006254410052821085,-0.0001777058460258215,0.0007841771176942386
1540,0.012440867445686173,-0.0051567658171712836,0.9770744482039503,0.0012002612111663515,0.0005205179693358009,0.0005788110286471457
1560,-0.015227729824232997,-0.01144743322558246,0.9636748916433179,-0.0007441557112600836,0.0005921653735627428,-0.0004678966632278499
1580,0.02545000279409383,0.020836271374351657,1.0050469884922468,0.0022410575048983448,0.0010454489832662363,0.0005583997256199962
1600,0.00030332374104853616,0.0009232722708380883,0.9605704674455132,0.0018821754616694473,0.0005267792369057532,0.00022108747683432725
1620,0.010589872804283987,-0.0025586796949447956,1.0239297443715933,0.0010228238047623724,-0.0016656906761978035,0.001018324849533872
1640,-0.0001652769420370057,-0.0017281495727628877,0.9877334488348349,0.0011682477706789049,-4.556040575072227e-06,0.000160307937448314
1660,0.008524931349509752,-0.006532928177156524,0.9809973331549493,0.0010263888900953345,0.0003338184530925173,-1.8861780941387256e-05
1680,-0.007535103351176148,-0.024580206919521324,0.9867026565988641,0.0006685363201173802,-0.0006051706235441296,-0.0008596653404347114
1700,0.004367573822142495,-0.014835576109837764,1.0078746979975106,-0.0006393043758495099,0.0005866807457130319,0.0006236865876376612
1720,-0.010051694024808312,0.001416590305330642,1.0278681748946366,-0.000927139944663917,-0.001674237964110789,-2.2001341105645355e-05
1740,9.237884598416295e-05,-0.010596741377219459,1.0083457860348481,0.0010623021452442585,-0.00015982851785652008,0.0011372612585701571
1760,-0.007749676231230826,0.0013801247536789746,0.9433638779379176,-0.0015007636863169785,0.0017665954255108416,0.0004740394222589344
1780,-0.0023436732489952035,-0.001904255346777784,1.0082655745187563,-0.0008082046156080459,0.00037793922543447365,-0.000570069484071926
1800,-0.00016295523895190452,-0.00547332599696406,1.008259707212815,-0.0005141773394656243,-0.0015698317646624434,-0.001784127884639534
1820,-0.00010412550860116494,-0.007734382411600676,0.9885446850640305,-0.0010096197719037978,-6.870974846411703e-05,-0.0008693354183111537
1840,0.005717324886277444,0.012730423856715401,1.0073636152756082,-0.0014555597307557644,-0.001031027372174759,-7.507092182306639e-05
1860,-0.010936316656713869,-0.011520243856256478,1.0468215352863441,-0.00123543285325073,-0.0007287809787840687,0.00048743443400383165
1880,-0.007615686699538985,0.01025552825056519,1.0292051144479857,-0.0018277504664094045,-0.00202863908905527,-0.0012371726876814438
1900,-0.007254494648930602,0.011247832149607727,0.9823833205139437,0.0003746093740760014,-0.0009255547527914735,0.0008010281907956919
1920,-0.003021034974517013,-0.012365364338895256,1.0009963459939322,0.0004180381545135518,0.0006325108775463447,0.0010902262399910482
1940,-0.005918833902425952,-0.0038963405824130703,0.9983749881221319,-0.0006611331445918873,0.0003185690890342327,0.0005063554729319275
1960,-0.0062858195863356985,-0.009467616553816323,0.9744880894066362,-0.0005075791489876211,-0.00018052474613753977,-0.0008723393069036689
1980,-0.01794264779221589,0.007035084728804596,0.9933179378447916,0.0017325777231120242,-7.246897974977892e-05,-0.0004952418322631102
