timestamp,accX,accY,accZ,gyrX,gyrY,gyrZ
0,-0.004352523485074193,-0.01029501676214482,0.9842018206931216,0.00023268382081856952,-0.0001821155537338964,-0.0005712613892938518
20,-0.008047228878239984,0.018722524478703144,0.9828351996685141,-0.000870329144198116,0.0003422065362240779,-1.1813879565783444e-05
40,-0.016764912526851704,0.006560992512276435,0.9986976528568177,-0.0006086460404890473,0.0013091911701615861,-0.0008496001324631191
60,-0.0022065824728035224,0.006744991566971482,0.9967388162720132,-0.0009332879040576444,0.00015024657035605209,0.0001507387091550457
80,-0.010747325353337627,0.016185417753867053,1.0498688803738339,0.0020508530246734036,-0.00019705250679470188,-0.00032812027078085515
100,-0.007125203893775932,0.0032541546640528513,1.0167534000131995,0.0011794724396058923,0.0006465590902296237,-0.0019074780261556493
120,0.007476336105913333,0.003329449590833728,1.000801684149217,0.0021605751036793673,0.00042882950465602556,-0.0012626191934303446
140,0.005731674202469351,-0.008834717296298072,1.0347396198047798,-0.0009233263178819493,0.0011586286017666847,-0.00046982284355120496
160,-0.0031532370007254324,-0.017463633703109306,1.0322988740057546,0.0014933874622098285,0.0002371247323774515,0.0004994086195709189
180,0.0035560708719093942,-0.006136337194964358,1.0163212999151314,-0.0003173605908109399,-0.0009418382991398225,0.00017405270105151383
200,0.0022627169648185247,-0.0038663978123621625,0.9982997093712764,-0.0002845333219904082,-0.0005419743489194386,-0.00014038292502494974
220,0.001170376672276207,-0.0020788664036692495,1.004587793186878,0.0012799575370083045,0.0013554278403060352,-0.0008045656096793683
240,0.0015940294622103133,-0.0050915405368322396,0.9735822811611189,-0.00017349008326562952,0.001776467372594576,0.001427638775848447
260,-0.009841682575789596,0.0037744524568874287,1.0032346096315978,0.0005277480742623084,-0.0009196119010347975,-0.0012069162509049283
280,0.002812071713235519,-0.001984835682174859,1.0189511805681695,0.0007099786342415935,0.00042928038305012155,-0.00025049994471436105
300,0.0006904124934234587,-0.009831977954807915,1.0215656967568432,-0.0007686462592847075,0.0012306729570847757,-0.0012530427911791623
320,-0.009859455502909965,-0.00397664841803721,0.9770293346603114,3.130326009361347e-05,0.00036617351543169957,-0.0011060341286621303
340,0.010234832252349443,-0.015421341957405407,1.0170271611369013,0.0006373645275775812,-0.0005907056380944257,0.0009654251992521492
360,0.023637970837511197,0.0051287517208881105,1.0290852567415838,0.0006903640464609662,-0.0009208217550782166,-0.0004865279747423225
380,0.002677587678511866,0.0016011988323731102,1.0029208216676169,-0.000502134026032117,-0.0007482551242034293,0.0004528066988579086
400,0.0010001545475936632,0.019038725375613186,0.9851307965675509,-0.001530706788558819,0.0008832955668667977,0.0003878319640785339
420,-0.002719980669215495,0.008687126113580091,1.0092335435355677,-0.0004051957395127576,-0.0004772494693473704,-0.0005929973983707761
440,-0.008688961468519048,-0.0018097993929202208,0.9848243766468306,-0.0005545605503136694,7.983992278082282e-05,-0.00037695603602849666
460,-0.002570699160108344,-0.003258759038075433,0.9990063447531887,-0.0006716853862678133,0.0007008647367042054,0.00011118138964688421
480,-0.016034121197357688,-0.010346324375554232,1.040367912391672,-0.0002444423130124502,-0.0006011372309987993,0.00022290714465911466
500,-0.006738547082397697,0.0011229760742622788,1.0191830559603756,-3.8046820318610025e-05,0.0002587084429422065,-0.0009617547515937781
520,-0.0021422991674222777,-0.009585243960704344,1.0054015399371405,0.0014896746971172746,0.0003606268991755527,-0.0008514773349346733
540,-0.00347002583523272,0.010821494064072028,0.9758274635596225,-0.0010301195420185849,0.00030978478801773203,-0.0011262396192967595
560,-0.00034979265140284185,-0.0031888198456113495,0.99788700259595,-0.0012599926242223283,0.00041845188121656854,-0.0006509998546826571
580,-0.01577314032791182,-0.003756943916209316,0.9925659385265642,0.000885140309192063,0.0006933490920484395,-0.0008712827927852693
600,0.020521540987952593,-0.01570362614282212,1.02195890745752,0.0004736795374946839,0.0005499802215681405,0.0006249422390677042
620,-0.007173214450457325,-0.003362723972011032,0.9751979878169643,0.0003506593304467033,0.00014002500305878532,8.595312504183811e-05
640,0.015449447126433426,-0.010765537748162586,1.0307122075121753,-0.0034129020267130677,-0.0003179707071846128,8.561478490366731e-05
660,0.011828912688679671,-0.0019948126696186282,1.0256041876713393,-9.363942528635351e-05,0.0010973528188548474,-0.0018098458878475854
680,-0.017666989481174355,-0.013665468948101259,0.9954500787117039,-0.00047323434237922746,-0.0009229211230164883,-0.0006162913822942321
700,-0.008673481415875718,-0.010616940145290075,0.9545468351187073,-0.0006321569352745121,0.0005342822200607248,-0.0006915224372946084
720,0.005588645937878867,-0.02273482530401582,0.9870533664528732,0.0004779595459665503,0.0003427691732187667,-0.00044858100187825843
740,0.0009254023895561186,-0.025519974551179485,0.9892433120969537,9.266986180778542e-05,-0.0005488319964191026,-3.350727430085743e-05
760,0.005871278043147545,-0.0006989305482577223,0.9895313719407989,0.0008965534759232554,-0.0018434556956802542,-0.0006799744332687819
780,0.005335551376951262,-0.01626413868927829,1.0039146210653027,-0.0017816309285959067,-0.001302562071154833,0.00011606505063092871
800,-0.006438105077374003,-0.0037883064062104246,0.9933153461166838,0.000204089148323117,-0.00022074114750342765,0.0005611757331798797
820,-0.0030776654331165065,-0.01631683959395018,1.0184362523135306,-0.0014334070000064632,0.00053317340958635,-0.00041110406710577046
840,-0.019937469992205605,-0.009009126947836473,1.0034235484230418,-8.768421575743767e-05,0.0007387850749377143,0.0005454761016392242
860,0.0059126320624757,-0.01817307787367839,0.995030113330211,-0.002338320475363108,0.0012356132465325435,0.00010832099648332048
880,-0.00033629894084782864,0.0012543780833969198,1.004372732086185,0.001039667993100928,0.003819712693151706,0.0015582210552761893
900,0.0010903371319753706,0.00350063405400832,1.0020206421445488,0.0006472139704516225,-0.0016238646976996193,0.00021933383199574402
920,-0.002532575081897886,0.0014899437386607895,0.9842019022322112,8.511994645572301e-05,-0.0002625876354032463,0.0004642296680171893
940,0.014238328038988014,-0.002909872075275165,1.019732298981855,-0.00038627359358562387,0.0019284356830006964,-0.000566899213792531
960,-0.0042219733508086785,-0.005157563694239759,1.0326349266358654,-0.0014334979342022758,3.586914581118033e-05,-0.001718278856597443
980,0.012101078506158727,0.006546236344372577,0.9794912049576872,-0.0001109513318366703,0.00034784297259218594,0.0005707719499741461
1000,-0.004731789398521804,-0.002331833028305377,1.0057472046848186,0.00237064400166464,-0.0019397032896851592,0.0013960225860568485
1020,0.0008282506325797279,-0.0014306855984689588,1.0004320446774153,0.0012246730464036044,-0.0010484853309316363,-0.0008110334845802382
1040,-0.006118605557565654,-0.002121080069383703,1.0456554546174106,0.00019141136896318078,0.0004382105381258058,0.001223313704659757
1060,0.0008964915182805495,0.016228701965767894,0.9969806313981336,-0.00045323655168479614,-0.0007138583378659299,-0.0007687394421077321
1080,-0.0021799753833434098,-0.00897542278542321,1.0053724446671974,-6.074405068331542e-05,-0.0007599710601733196,-0.00033371493807425465
1100,-0.016108409968309725,-0.0035349133797548614,0.9752874068877149,0.0006156517418803071,-0.001185557714462289,-0.0015344690441884622
1120,0.0007926800414471769,0.008336547327228154,1.039996037172706,-0.0007617818100182218,-0.0002638256998593852,-4.888584189021384e-05
1140,-0.0008725886483475765,-0.0016416247781779914,0.9843177532342335,-0.00025403976076574826,0.0007723021175054888,-0.002065796967761315
1160,0.01590248174645986,0.0043269246860072165,0.9968927338501326,-0.00047428650548635685,0.002101360225196624,0.0008149373567978955
1180,-0.005114153756199886,-0.011837177295233859,0.960529944195264,-0.00042203518042455314,-1.3664371454705402e-05,5.114756464268921e-05
1200,0.013118028342975182,0.015218717824582569,0.9954992413994825,-0.0004572048850650684,-0.0003511564066721711,-0.0005170428902841687
1220,7.752310203355108e-05,-0.006400275204599515,0.9688279756564977,-0.0007278756958594415,0.0006586633163468272,0.0021152347723197283
1240,0.022909927596409335,-0.01310139400488147,0.9982365175752396,-0.0007081735721220469,0.00018816077561185557,-0.00010481507994348229
1260,0.005528043743535645,-0.0009291319529521271,0.9916403728294372,0.001774966847913059,0.002049968481812822,0.0010122540976573139
1280,-0.01129921077496055,-0.005539421162640865,0.9995367232846906,0.002040478205027155,-0.0003169362442749619,0.0007133267074819682
1300,-0.021453821719751888,-0.00196616906302444,1.0163288763602027,-0.0005684230514802711,0.002153090935244387,-3.6093216970585366e-05
1320,0.007450939240698305,0.0017348272621512165,1.0116306853453427,0.0002485742998135257,0.001249906320034818,-0.0006476159494841112
1340,-0.0014477661268110995,-0.0027130103640458825,0.9964681634760618,-0.0006503088822836497,7.308549683935232e-05,-0.0015543945184196863
1360,0.011733397318208987,0.011270585561864789,1.0065018026084163,0.0008187545135380599,0.00025914586500384135,-0.0009021630641340086
1380,0.002953262065721616,0.0016094569768248391,0.9812386532175189,0.00098201631270801,0.00048001487513031247,7.44823716522986e-05
1400,0.014551540026351019,-0.006541084209797191,0.9974869311484547,7.90667216509854e-05,-0.0026068529722007333,4.290820915693818e-05
1420,-0.0200139027916297,-0.001715382265364579,0.9825922222286804,0.003095622632928608,9.350822966317057e-05,0.0013933663987146976
1440,-0.0037399776829870964,-0.004150661521033339,0.9735290742321162,-0.00034402958224750426,-0.0009268737399760503,-0.0006736993761605922
1460,-0.015163383494854453,0.0035578843368312906,1.0029891943700744,-0.001066489285001659,-0.0006925721779888876,0.0005009987765393415
1480,-0.009743781373828244,-0.001878870199993129,0.9920341399079906,-0.000515461668717392,-0.0005808443617987286,-0.001201353396723596
1500,-0.015758110771232535,-0.015824021410778082,1.0113969046515952,-0.0005618078130115144,1.2979992356609686e-05,0.0004641919950699429
1520,-0.002055745410152579,-0.011024252936294358,1.0092377240504715,-0.0003364083426022122,0.00020659005814529396,-0.0008196941125904673
1540,-0.014468075538508474,-0.005121131430000255,0.9821535957465135,0.0007126152491557411,0.0015306272109076524,0.00041729225642889124
1560,-0.0039302168017899845,0.005923102259573143,0.9923088355271852,0.0012546066666226385,0.001000213529800326,-0.000489767366832328
1580,0.017565515892197514,-0.0030486426484864562,1.018772183599871,-0.0021093230823929668,0.0003958825125575321,0.0002917167940805466
1600,-0.01702279789088982,0.01677271668315499,1.006785352019388,0.0005063169229438661,-0.0012229182118257027,-0.00022937373215191405
1620,0.00013040453849608679,0.005423677833679084,1.0092505514462875,-0.0010290117747618662,0.0006080658620706374,-0.000985505808474903
1640,0.02025970191639711,-0.003931137755079507,0.9904223043514833,0.00051395440449181,0.0003353696606819684,0.0022060123606426384
1660,0.011853728285673824,0.012334233175835223,1.0046752973080024,0.00025990538501039114,-0.0003188108820308193,0.0007693464200748576
1680,-0.010849692760538836,-0.008819287727927035,1.0130614193067415,-0.00029790808777236397,0.0003446724270821538,-0.0003200263194516596
1700,0.013149821333267225,-0.006978579874307801,0.9656827111388875,-0.0002671093170092923,1.3464631059066275e-05,0.0002221048890222872
1720,-0.0022245895883494494,0.002410656479029224,0.9757509652438282,-0.0009753749759989947,-9.061857735988705e-05,-0.0016433400886734595
1740,-0.00016487183151936134,0.021883988151605246,0.9970557931362923,0.0005684408132646707,0.0017582138548822013,-0.0004966292185302235
1760,0.009605557435552534,0.002570772268884552,0.9942411694655953,-0.0020954662946059536,-0.0010443469621402455,-0.00029891563137744617
1780,-0.003928226316021829,-0.01643269865503959,0.9988571562255921,-0.0008644313169457625,0.0013805008820880912,0.0021506374089162606
1800,0.0035293738722574444,-0.007306175220653751,0.937232750776566,0.0006539141772166251,0.0005647892879488318,0.0014108704729695039
1820,0.012130276880087389,-0.021304950686987963,0.9901050544449151,0.0015742989979921488,0.0015958610046551654,-0.0003893122901876359
1840,0.00013641842994843237,0.007402988931774597,1.0304612469502326,0.0001233843076136775,0.001161654612812714,-0.0008963933831691947
1860,-0.013494516928993202,0.013689535687495437,0.989895328512768,-0.0004196325676970796,-0.0009592663292812025,-0.0011513783487878872
1880,-0.006262972158205631,-0.014742326302894952,0.9702537221440972,0.0007145211378884871,0.0002549195124109234,0.0006217046524819343
1900,0.007063970456828362,-0.0007539720549610222,0.9870322709684289,0.00028887398705760935,-0.001456772755224937,0.0003232532354746767
1920,-0.0005201489225514218,-0.011504440916504486,1.0089635035243194,-0.00018120957379637643,-0.0002057436153587536,0.00046145051069196725
1940,-0.010865464536794637,-0.029019660506296285,1.0096434904157172,0.0006431886027061493,0.0009182687192478749,1.5158581100632522e-05
1960,0.012811615911135419,-0.00976610435259982,0.9791727279811857,0.0004573476418257168,0.001819068179963425,0.0012217298230631302
1980,-0.0024460953326985654,-0.002934943350462099,0.9605063848476519,-0.0005200344509409886,-0.001320284372673775,-0.0006171020130660154
