timestamp,accX,accY,accZ,gyrX,gyrY,gyrZ
0,0.04180390960594818,0.017756175473639384,1.0086839855752714,0.022464103211681158,0.008948555607910155,0.007346808519752442
20,0.05010169586725953,1.3545050193757477e-05,0.9852534892596524,0.12524095026785148,-0.00828451746088298,-0.014854690331271476
40,-0.02846602927723656,0.01814357334024809,1.0141297737974506,0.1938746346494803,-0.008313511797047125,0.005099262783302944
60,-0.037356497342502605,0.0035771999995547698,0.99951265738739,0.16444689764719442,0.00629512176155701,-0.0016930691678683878
80,-0.04004228016039075,0.029679559171762033,1.0130588056870704,0.11450237451722242,0.007428225325811753,-0.01476143872436271
100,0.026101906551433785,-0.00847236727762058,0.9932995912184245,0.013389258343324655,0.0028542406095250863,0.0004718865170431165
120,0.009762790918077368,0.0021593450854209065,1.0058871495842827,-0.09806304526517216,-0.012259349322017877,0.017079207181219216
140,0.007344493748839489,-0.03456136232975197,0.9846317677556949,-0.20091117365341038,0.0026402522434099546,-0.0028017448872725143
160,-0.03189744728026127,0.02490647629706336,0.9902824352598989,-0.1729130654355728,0.00925356038120105,0.009503133481648374
180,0.05659901052838756,0.021450734637496555,1.000919626634099,-0.13033881019962273,-0.005174421671872463,-0.002317123498295057
200,-0.029895904286211278,-0.01502939139001033,0.9680812401768504,-0.015896245281253628,0.009654626171890899,0.010645423482159291
220,-0.11807979969957616,-0.05488272440386488,0.9835611804895679,0.126769765625049,-0.0027517184767327984,-0.008117243449223432
240,0.00907589948467364,-0.023089055393548878,1.0169616061096367,0.20103301013353897,0.007253188091911673,-0.011745358215429942
260,-0.126131276856091,0.007233551371497532,1.0205784198157117,0.17499055353388962,-0.010986099523354852,-0.004847820085116081
280,-0.06865153022098995,-0.007201219181245694,1.0088301469989258,0.07350685204706463,-0.007772607944060634,-0.010852046901558535
300,-0.21285222400480003,0.014271861780387914,1.0111195422522048,0.004677843362939551,-0.0003279481663263827,-0.0018729863658844212
320,-0.19630494581480984,-0.02160124688911179,1.0136640986380923,-0.18590808049760774,-0.002554479396681882,-0.002597181890744875
340,-0.30851311630539585,-0.014888756210091612,1.0050683682541388,-0.21382069145849714,0.0017988072984516518,-0.009423567278454668
360,-0.40906278863583684,0.03967317017672155,1.021592714713383,-0.20380566817713214,-0.01343927993485293,-0.011898023929370264
380,-0.5244046338793248,-0.022115129907241036,0.9969663887225777,-0.12014418559594381,0.003608493035023239,0.0031428106000597252
400,-0.5334436431354738,0.013462935025708896,1.0080339246985714,0.04765774943081329,-0.0009100363280882558,-0.023274911533950723
420,-0.7196086401917084,0.028338452108611144,0.9966423210925083,0.1217896513298979,0.022086430199906904,0.010999361094222828
440,-0.8323939892360609,0.002197646205185478,0.9848861564039921,0.20922164986338926,-0.005275755463023126,0.004245496775034433
460,-0.9316724345203917,-0.011795277298968407,1.0160736472705076,0.18599233478522945,0.01064828124995604,-0.009777676587265877
480,-1.1338825921658477,0.008504044296606313,1.0385577587517132,0.07776818582541371,0.009928701806771948,0.01059630701911534
500,-1.2097863443749899,-0.03965996043166587,1.0320570019611024,-0.01832200288240497,-0.007568117867990284,0.009480324292124401
520,-1.243203256386221,0.0041143106089323155,1.0007378439954837,-0.09492583994150666,-0.011530970427383125,0.012596936231258965
540,-1.386081185477014,0.02729001925277631,1.007212953030581,-0.22016553720968599,-0.0077645572926335,0.004704790489080395
560,-1.5253254216274243,-0.03259137647396275,0.9798083887219313,-0.20563265648642134,0.0151860863559209,-0.006151458643745392
580,-1.430444104951863,-0.011874270697305254,0.9699305156822925,-0.07763967162272845,0.018596109504825417,-0.0022953459858309965
600,-1.6593732505492276,-0.0010138361738979572,0.9839548121158584,0.05966996013291358,-0.00446325422845712,-0.0065419862332568735
620,-1.4617112618144956,-0.0038563462128201704,1.0069399984045084,0.16362581179815672,0.0003549588838064358,0.009027784852891305
640,-1.354687613792843,0.007115841397307674,1.0020088102446616,0.2199090033956001,0.021895992589813555,0.005111914832480048
660,-1.2588498215568082,-0.022998926416892537,0.9930989089240294,0.17163918290432664,-0.004246745356759849,0.008502520417050513
680,-1.1769723758036836,-0.013407264807914415,0.9895601584891512,0.09581061432431524,-0.007596957085529578,-0.0037182265707056666
700,-1.1291282780533543,0.013654470459994435,1.003095631485921,-0.06445340530826806,-0.002092129502943589,0.0023428223508266243
720,-0.9872707707495352,0.03662288839649583,1.0069149329991078,-0.1566759985534811,-0.011765256177716382,-0.012377185904108206
740,-0.9194029900529418,0.004039740538612327,1.0128079945250754,-0.1817817121957886,-0.011111231947493012,-0.009364045511373221
760,-0.7551593026509354,-0.03636613104906201,0.9887785030223869,-0.1424256756777511,0.001357736355430575,-0.009612501758453754
780,-0.5879369502454718,-0.007778257432862412,1.0149636225825223,-0.10056809708977041,0.0169465922550345,-0.012052632338876799
800,-0.4866688478011312,0.0028642450736807118,0.9836865506710367,0.009176261126379572,1.8874914401688278e-05,-0.017282560793804917
820,-0.43009194720974053,0.025016407972889853,1.0210470869799086,0.1682141902378352,-0.0014197981293682786,-0.006901074224366429
840,-0.33089764939898847,0.01029241513713693,0.9893004241743304,0.20100458800917603,-0.015853005914068553,0.0023121744220119924
860,-0.21971545471786652,0.0043129695317209865,0.9799891877523816,0.21800300054825822,0.007877623747304937,-0.0043961829081750805
880,-0.18753782298113295,-0.02412448439718468,0.9793692399139541,0.07490468209936484,-0.014595957378773563,0.0004084342162151191
900,-0.1880013052294938,0.0022799159211850466,1.001911577603641,-0.06106073065332334,-0.007103154468067238,0.005065464595719441
920,-0.09490656030960426,-0.02580270974172806,1.0340311133338331,-0.18136863867704767,0.0038866007157216556,0.0017741430991814685
940,-0.08357720947329124,0.06677838801851292,1.0249922746302074,-0.24097041314607878,0.0049070353420730475,-0.00966522077434108
960,-0.11452689330176488,-0.00019026762813442884,0.9983925878128378,-0.16632372868005268,0.011973358953567449,-0.001113906928965947
980,0.025457487909081672,0.0400422623966331,1.0203207010532733,-0.049107351847891056,0.00497615263253534,0.008910718450293868
1000,-0.03436624741672891,0.03396554899243019,0.9934360291617265,0.10188580327400769,0.0022302143878987243,-0.0015945177223174528
1020,-0.03970982193702555,0.015344425568005084,1.0049759478183922,0.14231686764428825,-0.013373753538560221,0.010884540022605147
1040,-0.02656122390481491,-0.00476321959664186,0.9718141687064309,0.19067275259979694,0.008757575997675628,0.016714922005767376
1060,0.04228651953051646,-0.02027859537374018,1.0080284126823982,0.15507402048377314,0.008923484652127108,0.005651970842331499
1080,-0.024763515784848356,-0.029776140157016226,0.9813568032567037,0.0743746149645454,-0.011721047513617973,-0.005292680681634577
1100,0.04890040288204042,-0.0002046455085238626,0.9791686555142649,-0.0727841337140395,-0.006278449094690751,-0.010822614556147789
1120,0.03837830339095072,-0.0069499677958546596,0.9709725834712599,-0.16428861696266647,-0.0032284578522151553,-0.003753200770591852
1140,-0.07280256360842079,-0.0022070155911844175,0.9798166382274013,-0.20165631435475495,0.004480221741191477,-0.030640598920370434
1160,0.053066255004661105,0.02039230349379081,1.0164936258782367,-0.1686661683165119,0.006818419073592403,0.011351260611992396
1180,-0.0049100464371943245,-0.0035608043858906943,0.9888176468073859,-0.04167364986770742,0.0004396738144900525,0.0022492048537535283
1200,-0.051419064337726667,-0.008146145668279637,1.051558166974767,0.0929134031949844,0.0057614125668140745,0.007903547599873745
1220,-0.024930613753718852,0.00790536957167696,1.0098493945256528,0.1547302511325646,-0.004170977847391453,0.012868636883561444
1240,-0.04920638710884094,0.03229241603269534,0.9802665511424588,0.21120458530300662,-0.0030966841061242953,-0.002899407141842409
1260,0.031300603492733566,0.016647565591875396,1.0056644110774584,0.15123376452751755,0.00551864956997078,0.020447021931688937
1280,0.07280071966174163,-0.04049163809810345,1.0037975421075205,0.032633676227536344,-0.0045535577556918725,0.006803412966406503
1300,0.08345139403194586,-0.0027096756333954814,0.9661919476789164,-0.08517101271345373,0.0046901662751222106,0.006581652350441471
1320,0.028935530910034642,0.044906889514231434,0.973171128110645,-0.15468632904239318,0.014053017237687954,-0.010788299854081848
1340,0.016308963416082917,0.0018848747993624934,0.9940154785340064,-0.20588389803503002,0.008604020011375094,0.00496355397228867
1360,-0.11090474182894382,0.008194634494936875,0.9600622993377106,-0.15618087436047473,0.006091710412859204,-0.0013880331618216066
1380,-0.026447205787285908,-0.0340905940134043,1.0156629303245355,-0.026987512290548927,0.014253136572678925,0.00039530850938662937
1400,0.07144779135948308,0.03814400112836674,1.000899227022031,0.1059770503208159,-0.000269072605116283,0.01176267685608469
1420,0.052345759354817896,0.021441101168970737,0.987453354171653,0.16537023593111014,0.0016123934151295247,0.002336414387431154
1440,0.010336408481695805,-0.00681560695658341,1.0406077224137595,0.1926625638756793,0.008680897523303545,-0.01830297424832009
1460,0.07108553772361045,0.02868139524423525,1.02391732804803,0.1743717479381827,0.00882304178105312,-0.0002195222837525832
1480,0.08218316259080871,0.015054038410038563,1.0131189401767258,0.04730830635515866,-0.0068116254710743705,0.0019009401186606681
1500,-0.007403442746488849,-0.0444239069373595,0.9707829736657152,-0.11368005589924274,-0.0015525509267667117,-0.009157328005709162
1520,0.015571652569869901,0.03328768420761664,0.9944491985250833,-0.15196920578762976,-0.01699211190097575,0.016710894814416403
1540,-0.043433528392340555,0.014897793591782593,0.9891024460259851,-0.20621567369047694,-0.006215744986022368,0.010796956825214851
1560,0.04924243877200328,0.03206952394579672,1.01703525370166,-0.13828466918681984,-0.008092436079668345,-0.006742416814678756
1580,0.041083574150453876,-0.0006096523800888128,0.9973964769553411,-0.02464539086362765,0.016414145364626404,0.0005191607585074739
1600,-0.011201273510150279,-0.008712700391862577,0.9969876950430692,0.1145604819281951,-0.015083778484223502,0.008324660981783721
1620,0.0021147537254582937,0.010196409495634787,1.0195307330584136,0.18106160864337204,-0.00043238293054324406,-0.0007893810824809133
1640,-0.03221744783273177,0.002522277148689698,0.9914935345132286,0.2051895948192266,-0.007455469673502639,-0.00865372707059757
1660,0.02707272177646449,0.01340618724056409,1.0157862865608656,0.13061180658024674,-0.005394500057758616,-0.011920583598147199
1680,0.11031321394975555,-0.014446615826143963,0.9796985886974207,-0.004226658291010661,0.005652245265051932,0.012497453352032508
1700,0.04180305756547213,-0.04491590619987881,0.9732957871631671,-0.12824462406291218,-0.006804647090551539,-0.006952646786191879
1720,0.09959357262441212,0.01812818842527927,0.9845125156705348,-0.16428979853997813,0.020977223638816926,-0.005376051527222001
1740,-0.01791875995131154,0.01861358541094922,1.0067173518401409,-0.16927131215817529,0.0034717991586253618,-0.012443954779901423
1760,0.04335897785297154,-0.03610289100812633,0.9953173913385969,-0.14554760034972006,0.004547876656663284,0.009337288978486256
1780,-0.11168826695973119,-0.007816230241247026,0.9970293474557584,-0.02386998701284987,-0.0019643632267751588,-0.001200367287946765
1800,0.00044797077688531986,0.009741891546378839,0.9860909063692627,0.10277498690891192,0.007104316759348948,-0.0009048803303800751
1820,0.036759671775823476,-0.0008334573926227995,1.018522198289562,0.1788058131118352,-0.0014850909355136512,0.010207143176492278
1840,0.027761756133051974,-0.005775348930003314,0.9817420121302645,0.15059202370589547,-0.014088691117590644,0.017557502132954452
1860,-0.006998817446415183,-0.00509691966731844,1.0142195672290837,0.12463361209171794,-0.006467409565603847,-0.0049093621556493845
1880,0.09112421611425606,0.03528829314824234,1.0145086408377366,-0.0050606179701884945,-0.008491501781183661,-0.007614897904218439
1900,-0.07282554860728783,0.036789168359767886,1.0342691002987852,-0.1292789054977409,-0.00851600050942037,0.003084463022287254
1920,-0.0023005885383298413,-0.003989180331371158,1.0067301865119447,-0.2084051276990017,0.012225157398671933,0.0079997561157186
1940,-0.010114384648812529,0.018859208904583657,0.9890759072800339,-0.1736712549944113,-0.0049793283350293835,0.004149980399398589
1960,-0.0063180880519146864,0.019727617064517155,0.9944147686855096,-0.11251501627591758,-0.008442369023618966,0.0003313612727565834
1980,-0.028310698797394625,0.021185118302046814,1.019018238737076,-0.01616669374440417,0.016331237680783893,0.005484766759137135
