timestamp,accX,accY,accZ,gyrX,gyrY,gyrZ
0,0.042665374558152454,0.0036724293078254444,0.9642750787489284,-0.01529830688668356,0.013643128175232567,-0.004114147496482054
20,0.013260808369481472,-0.0032181414823338333,1.0191977687356275,0.13247235437686736,-0.0029379723296218867,0.018702573977608605
40,0.014071032086478521,0.011362325857537735,0.9908478199650922,0.19042949846608195,0.010429909712570342,-0.005802791588839071
60,-0.015367415616567764,-0.008580666041618177,0.9728466864255988,0.169811602166662,0.0036604505660470803,-0.01007451154696756
80,-0.08977492206608158,-0.006812107164574711,0.9863355996153713,0.15081553948823478,-0.013435808838948292,-0.006105033841455926
100,0.11701384113307128,-0.013515486254821518,0.9761563716417432,-0.00734515537167061,-0.0018077651333774053,-0.004385682740468049
120,-0.020198347453582153,0.005008522876460316,0.9643604706674754,-0.1088565127531273,0.00270921499519915,0.00419139369379216
140,-0.012071383108155321,0.0005841439278490398,1.0118387548094148,-0.18238129214205437,0.004762304427623652,-0.010864236847355395
160,0.00850822293543298,0.025470026997440068,1.0212616111733661,-0.20858401444348212,0.01169225790088235,0.013151927741295326
180,0.028923229397150384,0.029869963714811033,1.004266869885055,-0.11787369417526984,0.009824885997420917,0.006876009467822607
200,-0.010598088692696156,-0.015993787703615148,0.9625371233862032,0.017693110016383344,0.011279765171478965,0.011614955110772564
220,0.02857939312510073,0.00045751550932868635,0.9756235243338378,0.1631183017053841,0.009977869484657498,0.008080592310207354
240,0.00028150808861050064,-0.0029293305687163192,0.9436638642291946,0.20850519333913164,0.020953790674457212,-0.009923248652432545
260,-0.023100403642427297,0.005914151026511379,0.9986070756787753,0.17013853344115693,0.004813953559069085,-0.004539206218961032
280,0.1079261411021246,0.019935275082859735,0.9619242630251604,0.09802620819688494,0.01660640939403861,-0.0008815840209812556
300,0.022478835660860202,-0.022320940786585305,0.9829396590255253,-0.03528964805913707,-0.0008383889908290527,-0.0006621313194660343
320,0.23064662445071266,-0.007888677722433386,0.9850786868998082,-0.14268876005102485,0.0035033663111639257,0.0008648235023356528
340,0.40162225315438715,0.019153723127500116,0.9872086482280534,-0.1916043795246627,-0.005726380470138804,-0.01755093524776442
360,0.38449254489859525,0.008677216899039842,1.027017150455758,-0.16328350731343577,0.013704577655120993,-0.006031608637174339
380,0.5096436775167495,-0.01077484790292801,0.9742322964690977,-0.06299340272990503,0.004571803188684119,0.004224872376760981
400,0.5287182818878681,-0.013548210666254517,0.9760472758931551,0.018438697551808134,-0.0015637135016298897,-0.0021598900587633087
420,0.7352087440405308,-0.010217275657165893,1.0114685540397697,0.1600992145196831,-0.012787229154176356,-0.002410307213239891
440,0.8603485647570066,0.00826196100767865,1.0314350887211508,0.21735257699621666,0.015396256629574617,0.005106988882866131
460,0.9170815409141977,-0.0006316866836714972,0.9692468367569252,0.1620859420327501,0.0012568051430797776,-0.008511013719821494
480,1.0959345874973465,0.022923450779968078,0.9841300630325013,0.08116145188941347,0.003009640250009098,-0.0036819123642401457
500,1.1806466432837657,0.02791755499765168,0.9651709140262151,-0.01824265972133539,0.004971725088369951,-0.001599069984758103
520,1.3495636750137536,-0.025962396413361444,1.0067729446650027,-0.15087632223937483,0.012478781939992103,0.0013182452309874523
540,1.283936038349307,0.015132891900902716,1.0165091285602936,-0.1775979769291008,-0.009170751186545456,-0.007058660769781574
560,1.4758915375571189,0.020696687049980015,1.0084858539592503,-0.19281473861821646,0.00567352825751028,-0.005088837592968805
580,1.492372137163636,0.04230994224786805,1.0111657375300085,-0.09891307875297299,0.009189653447033236,-0.006408087487312739
600,1.4926263940910551,-0.0033978733708475307,0.9873858008866179,0.044497461159934054,-0.013763991097660496,0.013362310198656989
620,1.4817166972473954,-0.006499969883710983,1.0210055689911104,0.17627122978443613,-0.01649990998439986,0.004632168747413532
640,1.4183831851010857,0.04390110537279332,0.9771019283813133,0.23838935071284933,-0.004611680398452734,0.008386981809515099
660,1.3972429471836143,-0.0010037147389940961,0.9578332945487125,0.1805163357380205,-0.008126513859502667,0.007008291662842059
680,1.3062181311406604,0.01836670661821687,0.9981495910793012,0.08985315673214841,-0.012766483278329766,-0.01080476576618506
700,1.1687405693477275,-0.029093572781062095,0.9994887684424596,-0.04917172372357175,-0.0067778406993844785,0.0034545457930425932
720,1.0129565349385232,0.007663418167882549,0.9682068396397335,-0.1799572582492192,0.008993791733290126,-0.00461734637115869
740,0.9615102780696385,-0.001175425633379895,0.981258984118515,-0.216023542922669,0.018826592419302894,-0.0027254225715310026
760,0.8008701365473669,-0.02962613391305288,1.0282980712308898,-0.17209522974400135,-0.0008072442876935628,0.004071938383049276
780,0.631563406941342,0.0065864839622477005,0.9528302487562949,-0.07617391740113341,0.019753153709854095,0.0018637173456616855
800,0.567804134516872,0.012495383468160544,0.9996444009571201,0.04943046864615337,-0.002916748760006169,-0.014490798256044504
820,0.4296813719762668,0.01248538644101272,1.0078456212383962,0.17666449349798408,0.012774892112174021,0.010869157964093174
840,0.18136479319655363,-0.02079189837428719,1.005654983560347,0.1926067901686175,-0.006414548067162007,0.010430276743942658
860,0.29821029890443695,0.0064747391485594245,1.0314877115200405,0.16032161732366076,0.007803737195699289,-0.005073150406314739
880,0.150792871911355,-0.04324518570210027,1.0081802334268926,0.0488233020762502,-0.0026345421894451897,0.0008762129733921582
900,0.22391361485782735,0.011790939326968402,0.9855020206813463,-0.06142719980640017,-0.017130246454015143,-0.009707772562790542
920,0.05888858884045914,0.011522562343524204,1.013849387687567,-0.14264088758125956,-0.0017269772901220665,-0.0012153966682391336
940,0.0005036340326676214,-0.023123770208465438,1.0043863945190865,-0.18360981816152203,0.010737659190844276,0.004836148483961225
960,0.009240096492634672,-0.06527353749893935,1.0162590981219495,-0.15404893832068442,-0.0022736252298069786,-0.021214075267082588
980,0.0858628307447203,0.015237829436196327,0.9530378935475081,-0.09407788069163388,0.013242054596947,0.007260799703815868
1000,0.024086153116152965,-0.026249730064021266,0.9853128365661595,0.05253999188433226,0.0021579611567748764,-0.00543938271345346
1020,0.07039491755289129,0.01691896634885987,1.008500049902314,0.13273397020554117,-0.008082564963119295,-0.0031246100052020036
1040,-0.014432760005230878,-0.03564596743974217,0.9940037892903157,0.18614813076761277,0.0002970828788105343,0.01051159462368264
1060,0.04464586968081869,0.032612253988465456,1.0079588385716867,0.19136785117954247,-0.016396619310747176,0.008158855125497376
1080,-0.06191167156619981,-0.012038827394045328,0.9901071499548347,0.06569588470665896,-0.005250734165161033,-0.010220276357719308
1100,0.0012858630116324076,0.005104805528462379,1.0028844406206656,-0.035462882172052,0.004654447213629726,0.008289079191872016
1120,-0.013170927664720515,0.012139023192586173,1.0243343686622988,-0.19592013597558558,0.004201373714611952,-0.002303298052453142
1140,-0.054278227963073376,-0.005647906553971653,0.9836412565101901,-0.187420372951227,-0.006141854886160602,-0.0028739546248207253
1160,-0.05195377266221601,-0.01664762564619652,1.0093358851424077,-0.17292593041024246,0.002829460247238093,0.009724801804556543
1180,-0.05778476284755745,0.0289898890996308,1.0296764137981467,-0.04621339573423139,0.0024635456530067937,-0.011485869344856238
1200,-0.07561878673160553,0.007100694785941137,0.9965512341542199,0.06464739501823845,0.006379162453615504,-0.0031682509584067087
1220,0.05069650239855454,-0.01709785496407654,1.000952430134555,0.170333795259756,0.0020494251347161255,-0.004449748325733961
1240,-0.006544284449926941,-0.011046519571954048,0.9851152501343515,0.1676360433607771,0.0032169095498455016,0.01781828256127727
1260,0.12348940143883994,-0.011652212896031093,0.963979730519917,0.16658766131561434,0.00581233980390901,0.002699869694848193
1280,-0.062254733909447926,0.025697954022343154,1.0290818146114034,0.04684101646056475,-0.00244328059468268,-0.001811871857384319
1300,0.01352330199464132,0.012862736868951306,1.0162061203705153,-0.08102339317301636,-0.004370089941093427,-0.013879787032179975
1320,0.1150128940289098,0.006126726423526737,1.0267920396642183,-0.20418196238765085,-0.011590510802791016,-0.022838078717801618
1340,-0.06233402227891552,-0.0118883560755657,0.9885199532591048,-0.182372007288094,0.01571343843597395,0.014967906858082906
1360,0.013814966718248271,-0.01364385563823401,0.9862676839305424,-0.16587269513646508,-0.004846363240136579,6.017001904403173e-05
1380,-0.04598023865770638,-0.009021073374862255,0.986757124005833,-0.03053267861511793,0.004775357391142126,-0.014483067633407388
1400,0.03491353720285453,0.016844596565166008,0.9848888767565966,0.06340942391202525,-0.002454921180148717,0.009466090905464512
1420,0.0011959546176892038,-0.002669383853894105,0.9951148618101446,0.16812883746623858,-0.007843999229513255,-0.006953101022638983
1440,0.031211639101249255,-0.024642149761536784,0.9744005930963794,0.17462111739394648,0.01029057849264778,0.0002929903327347801
1460,0.019427664335079906,0.003780183861802752,1.005670175116001,0.14423978169516918,-0.004466736306412231,-0.0033625531497851815
1480,-0.02278705649579484,0.019609584852130643,0.9885745057807197,0.04354494168745869,0.0124627072761044,0.005393688006085277
1500,-0.030594417029793597,0.01910857073511393,1.037145443042722,-0.10618320299009495,0.010350023202267014,-0.0037386548441763947
1520,0.07228396716949743,-0.03866660680518407,0.9759402347887018,-0.15391669948364986,0.014212914050825086,-0.004523296946495191
1540,0.053771002298191074,0.0107433422879051,0.9639640166775982,-0.15477620400753772,0.009914562381433123,0.004497686433601817
1560,-0.05627767222910846,-0.019310892375295725,1.006243538015139,-0.1505544559640557,-0.011084651415277227,0.011895079964564839
1580,-0.04268568835207515,0.011683780701682054,0.9828623959049712,-0.06269274350723468,0.0022670420952789804,0.02004130398854402
1600,-0.05582080679991678,-0.029538549500107193,1.0024069932167363,0.10265573024010785,0.0032722063030397007,0.017181782877920736
1620,-0.0015640616263282673,0.024674541516223943,0.9900024360604598,0.20470571484368894,0.0031995513854845004,0.0005495944965214559
1640,0.0010366288410861872,-0.013436773133501355,1.0113134484535697,0.19064342745355597,-0.013794355136882035,-0.0016387300393926802
1660,0.010434144484602483,-0.009995290763398059,0.9837139258055481,0.11834121774756656,-0.003102890091005608,0.005079105471433932
1680,0.002793261881799069,-0.016382495190836482,1.0084031453198752,0.06022894636780584,-0.007750418959729438,0.016799570707658116
1700,0.003596383894516408,0.0285191818738698,1.0075212505708984,-0.14525289308456468,-0.0020272475556030877,0.0037107766622253096
1720,-0.04977803239550965,-0.04118335787281029,0.9861875933129882,-0.18920011672540377,-0.006151803806086652,0.006070104376111166
1740,0.05195519426319072,0.0015192031068428206,0.9968263091036524,-0.1801009405684747,0.004817988282120745,0.011671869804238715
1760,-0.006860709684571809,-0.007103078116662459,1.0073000186863743,-0.1666626604584842,0.019372395983244965,0.00271403169935474
1780,0.032209546596512234,0.01301308516461032,0.9948756544237028,-0.028589688415498995,-0.003451229923690906,0.011264241283686274
1800,0.09363199406629845,0.01247718157210743,0.99726210842654,0.10503421567942932,0.0065956100845915725,0.013650663591647112
1820,-0.04779792445072675,0.003957932954575759,1.0006709676282428,0.1606856643742203,-0.019507719806647474,0.00531624797735819
1840,0.06282315933813137,-0.00943093775634701,1.0306939983866363,0.1792792377746947,-0.007433099549050137,0.007285860298360219
1860,0.06456270196099452,0.0014286984158247559,1.0222510739872233,0.12001017664854724,-0.007401639136615674,-0.012184648463163035
1880,0.03762362229426499,0.015174273032760635,0.9926450531017957,0.008469041756025484,-0.004798853345467684,-0.011141618243414506
1900,-0.012550960834595563,0.013213454667874266,0.998679670577109,-0.12031722224334317,0.025088669928416515,-0.005571524511339145
1920,0.014726177784516606,-0.009002487346864213,1.0008372034309128,-0.20974502412233534,-0.0007359357621155677,0.004423687443206839
1940,0.018270095465888234,-0.0010766350356278976,0.9870750307107372,-0.19815226139299122,0.005059972746137488,-0.001431229017462952
1960,-0.007142821311749143,0.016557176005989403,1.0079023099053517,-0.13333393047278186,-0.022014536890645788,0.0008147594788251133
1980,-0.010667902436744047,0.017772163099209596,0.9673174819530955,0.002344840701611452,0.00756651934364377,0.0034699556686081353
