timestamp,accX,accY,accZ,gyrX,gyrY,gyrZ
0,0.0049152300472463245,0.007326265640550723,0.9844949562462154,-0.02022413984863326,-0.0010649003083398492,0.0023628736577702724
20,-0.05949340995655226,0.030271056690628004,1.0111651596626259,0.1239661203334199,0.0018202874773764284,0.004165115940931444
40,0.026138652114385496,-0.007884565851518706,0.973790201117359,0.18693429299810346,0.011306857635285177,-0.00394869152698008
60,-0.01850918752123285,0.03195219567670263,0.9893491934292904,0.16236777403576763,-0.00599149884866718,0.0044266102414092495
80,-0.02834894766002793,-0.004604665566604851,1.0099181631099057,0.09152727405035573,-0.016774006657965,0.001172083802757191
100,-0.027599150244178982,0.00860568463508976,1.0115681126447218,-0.019577909189568605,0.00839944866572867,0.0010858265401791365
120,-0.11269968635031548,-0.00029193528586674277,1.003157169813219,-0.12550355370205116,-0.001509654359532542,-0.012941822479803355
140,-0.15550440177796374,0.008587757674328032,1.0076681154893596,-0.20375202173525545,0.004246579278484925,0.008339081230765467
160,0.028093292393154758,-0.020842035825448187,1.0101433923455603,-0.17578568770299424,0.006901324224453752,0.0037131199998093802
180,0.027216146116117976,-6.831111271657028e-05,1.0309915490961414,-0.0937896883027781,-0.01946505579828749,-0.017386613235395296
200,-0.010044397733193811,-0.015216211134727764,1.011178891547818,0.019218051203301993,0.0032217701582336706,-0.012877087576561051
220,-0.00573401227674316,0.015022867638857379,0.9942329639136349,0.08960402939108231,0.014785487313547951,0.0016091529247436256
240,-0.13692041621016268,0.005011572226318179,0.9944240187376645,0.17272783826216617,-0.01232887842855462,0.034835294336755175
260,-0.04644065019557954,0.002563267718461324,0.9597796233856126,0.17833264636437374,0.010754020534205676,-0.006563812324361431
280,-0.11966729278562473,0.0039633315118084555,0.9864824850471365,0.08100523310509486,0.005665465387380724,-0.014258495643295182
300,-0.12435598138390311,-0.0054559635013773575,0.9992976549263536,-0.010981063462852112,0.010117218039435088,0.004144459481306473
320,-0.31941976306423636,-0.04132854864964061,1.0047848997677222,-0.14669734878282797,-0.0005245489874999427,0.006394549690931645
340,-0.3533298221186877,-0.017505232498349337,1.0154897252653476,-0.19771276121638956,-0.016227064666308095,-0.017302227604315972
360,-0.4002744283840835,-0.026492664097253232,1.0093823072467563,-0.20134993379522573,-0.006819883533686095,0.0015842435300668254
380,-0.49764239141482747,0.0025969673931061903,1.0366613929513924,-0.10490442189717512,-0.001782401971013019,0.0004938063224577848
400,-0.5536004880903542,0.0186554090234999,1.0076998933950259,0.046111393800647396,-0.009134993097344755,-0.006247081454182964
420,-0.6698529205160799,-0.0002487638288752861,1.0141113860162907,0.13447921188113565,-0.010396055399163797,-0.015597864012324863
440,-0.8391724601329188,0.029623726650131126,1.015242545327359,0.15593225841391825,0.005022403529869886,-0.0044798594637344554
460,-0.9087337454163341,-0.053159729533368366,0.9974150148442803,0.22382935197958373,0.0015837589872275386,0.005699884391048316
480,-1.069629652083765,-0.0016600978099220035,1.0050308944575825,0.07937129851929907,0.006914858405539907,-0.008299959761732353
500,-1.2137092228113913,-0.003146643978231577,1.0013345012406052,-0.04239411851998997,-0.012331471390546425,-0.00697217951826171
520,-1.26555409540561,-0.0327880718321898,1.0143801428703878,-0.16690708464115722,-0.020756495317302497,0.01006863586888904
540,-1.4217113025826864,0.008478981936843046,1.0021209529085289,-0.19288318642909344,0.014766457502107387,0.002128731035388756
560,-1.5120617140609898,-0.030118415508810528,1.0106872714705408,-0.20639153507028604,-0.016403827006175178,-0.0059454299476708996
580,-1.5041269152279355,0.008109876496774604,0.9843852933648651,-0.08229629502262031,-0.0027860619088081774,0.006391958083785379
600,-1.4999747446707485,0.02011649794675055,1.024729863183135,0.05060892283073327,0.00900173226970939,-0.01420830595132661
620,-1.4980001924140964,-0.02049894247284321,1.0213578079975267,0.15999597214698916,-0.0029552212087096763,0.011980654060393581
640,-1.4256992309865102,0.008308868904885308,0.9862783818388099,0.20184783754838856,-0.002808347418772358,0.011263611828204456
660,-1.3669087813411613,-0.01472905784682426,0.9730970243947958,0.17054051941810683,-0.005642266161732333,-0.011704152552200277
680,-1.247347859449137,-0.023762337646064707,0.9965628048392796,0.06910658631869389,0.006817537252835542,0.017084671576863476
700,-1.1124267380468116,-0.022650003846571027,1.009049506389364,-0.02466042794585505,-0.009490034896731584,0.006990634576252146
720,-0.9486662544676242,0.02230466604856706,0.9980366267036712,-0.1473038036066907,0.011088438487728565,0.003889859419290964
740,-0.9383715096377628,0.02507043183710159,1.0087631087824624,-0.17415056125999864,-0.001099967463478108,0.000262121341102992
760,-0.6576542596530652,-0.02833031590641957,0.9799426733477535,-0.1892298302798754,0.014327066286370156,-0.008740966643492408
780,-0.5314762600350722,-0.0032315980107129874,0.9780738079194308,-0.0895289073165053,-0.0011186479231608433,-0.019037794691569538
800,-0.5556263219571709,-0.00973227688669427,1.0010137386718188,0.022023435644014523,0.014285102987818455,-0.002766793650714914
820,-0.37632396673698126,0.005908253632240947,0.9681321763822819,0.14341029976524777,-0.013767309207512894,0.010054292081099255
840,-0.22515327257675888,-0.01394133375808589,0.9904857760438005,0.20051843257715532,-0.005807841746600157,-0.005876810765813343
860,-0.23373474664200747,0.009591792569118624,0.9824335765814922,0.2037634740704135,-0.01844518355775072,0.007576639848715018
880,-0.25359128066636993,-0.018596756453658804,0.9974330331583797,0.0887167947730601,0.009177896866592889,-0.0047210584160559226
900,-0.13840212453951156,0.006548465052050626,1.0341526811141086,-0.06094459518575209,-0.014070559626700885,0.010842649834131976
920,-0.16680551726254395,0.011482966793968404,0.9870087427036682,-0.18051191679950943,-0.000625697993194242,0.004891488794181075
940,-0.03719101985720476,0.00417674891998956,0.9715122783379018,-0.2170806022626477,-0.0016248195579410814,0.02967881985733568
960,-0.07871933349724883,-0.01062987108059709,1.0280409676757745,-0.15021745351898244,0.01513500141863466,0.00011295468268549059
980,0.0017104682219737655,-0.010590076704676075,0.9889913243122687,-0.046927580078018144,0.0028154553254063036,0.007850172693717699
1000,0.09889197848437292,-0.01595491103271923,0.9860886941864277,0.08135529221881777,-0.0035131475304897453,0.0023313333191367935
1020,-0.1084675724241182,-0.017803032159954154,1.0164263912912135,0.16945794556434463,0.007646239970289514,0.000225844887865671
1040,-0.03999425291390869,0.010242936884104816,1.0209688940276185,0.1739239018252296,-0.00017355736806797236,0.004788160012402274
1060,0.09398588588054259,0.050385373091408,0.9915101218584863,0.19096058754039372,-0.00015897742490321074,0.011997491482558527
1080,0.07998403338825999,0.010584312666019462,1.0203188866362742,0.04843211389371269,-0.002310242895602856,-0.013904109921250171
1100,0.06971984852699645,-0.02129545582416418,0.9934957143040759,-0.060151952642855354,-0.0007482782624406407,-5.9433758355826905e-05
1120,-0.017343066941601065,0.017845783882632367,0.9681403151932059,-0.16647343169845855,-0.003193316932017762,0.007859363714269436
1140,0.03229310976101514,0.02116140176182812,1.011869769425687,-0.22755199325959807,-0.011786756936774992,-0.010135933717767514
1160,0.03372658856928465,0.02412958520587263,0.9886519352055022,-0.1305926570622694,0.0033855226199742323,-0.018616535658693055
1180,0.03945571784389769,-0.010971184750847627,1.0140990516077288,-0.09580867958438646,-0.007617012362154827,0.008343409918199832
1200,0.06362624265294806,0.008389203960289473,0.995923400446979,0.0819249139242736,-0.005433945783245516,-0.003061770333419358
1220,0.006286004099958294,0.039413742886731266,1.0366442811036571,0.1766115857125481,-0.004863412299663189,0.006257612549354716
1240,-0.04039538366921075,0.03133506641231378,1.0107485841195287,0.1911588067216456,0.007382138704271329,0.004736746677250688
1260,0.003235160713512778,0.030850208150978387,1.0203501307729028,0.15926522933575235,-0.020590937958798045,-0.005775343740467013
1280,0.0812587515172745,0.03742452132012174,0.9974734045352334,0.050178481098140444,-0.0281517329339403,0.004161247361486584
1300,0.09517233851281215,-0.03188784398290484,0.9531036618065463,-0.08380910632038534,0.007539639074868074,0.012869877642206647
1320,-0.03228412941884474,-0.02941579887637138,0.9775596525268373,-0.17833088937610375,0.013375485019795377,-0.007019096848937316
1340,-0.05135508262926143,0.0007329972473661432,1.0134654136903125,-0.187390298156518,-0.017470717076091893,-0.005437881047213143
1360,0.0350074255652459,-0.012601449870069652,1.0073608244755685,-0.1377438326693553,0.007059641265724427,-0.007444633430196625
1380,-0.05746730069305578,-0.015818428574554094,1.0105926667503455,-0.041328987178519114,-0.02218848585544605,-0.019028783594867645
1400,0.02415402472264199,-0.006638131917533543,0.9755186129514294,0.10551424062871546,-0.015808699487546287,-0.007725733917761371
1420,0.027046962212741017,0.011923109180958204,1.0114252327873858,0.1862127059283509,0.011306753465512525,-0.015022309643165921
1440,-0.05649570290224717,-0.005317769778392162,0.9780947907303271,0.19879344849448255,0.0014007463720453574,0.00041336997835725135
1460,0.09141229621492512,0.015406386213349244,0.9693123466739357,0.13788136207093263,0.01614539557904182,0.013624286675313346
1480,-0.039073800244610615,0.00015516855811920123,0.9729992624393076,0.059281764642544074,-0.008562218719843424,0.0006259464336984589
1500,0.023782033762512988,-0.023228480603316073,0.9728324036300772,-0.06643269749652865,-0.0063509453758391335,0.0028760507355442846
1520,0.08193863422086493,-0.010716743181948088,0.9644778281987852,-0.1991099025254327,0.015964122005090644,0.00756208335029553
1540,0.04082033426685719,0.02008091659705153,1.021280823982426,-0.18404126307491764,-0.006187378331789231,-0.014118341053789438
1560,-0.027476762591639673,-0.005387177534784976,1.0141017205008973,-0.12924549776552458,0.0032127757407918512,0.0035186088423653696
1580,0.037825765291389535,-0.017314818568350238,1.0155656537924267,-0.02683880543772225,-0.005841236087313977,-0.001943929110076507
1600,0.03636553263866826,0.030114181682862822,0.9733819280890975,0.08630867783441926,-0.007426692255644863,-0.001210184737468171
1620,-0.014176342488298996,0.014366034164731409,0.9817704908127097,0.1940639324020844,0.00940036937168711,-0.0133448494642101
1640,0.03179355006527181,0.03491102893924727,0.9938160101996425,0.16874829398519642,-0.0015499417736515226,0.007180697095354095
1660,-0.010174041988377363,-0.014480720425886256,0.9975677847707878,0.1294381754576724,-0.0029652264138970573,0.013018184454266174
1680,0.03702181549870896,-0.028473730043923506,1.0140087929003347,0.003837363387568571,-0.00048106664226673604,0.008762237834800013
1700,-0.006471278572714223,-0.006148622304651942,1.003236269400856,-0.1415161758281933,0.010469890082205549,-0.015919185046572488
1720,-0.0915818628967145,5.0100900895231656e-05,1.005143859319563,-0.16751753461226876,0.009928407710214467,0.010149253155060467
1740,-0.03654077553546394,0.017887618920176537,1.0290411514678992,-0.2141315858354716,-0.005423224313655109,0.01874456385259345
1760,0.03643980406861907,-0.011999592800167116,0.9839890586667643,-0.15733414151538755,-0.0045989487079441905,0.0026709359537476197
1780,-0.02701197314349834,0.027530255392627587,1.0341783731218575,-0.011663890916419811,-0.021505696872775135,0.005081297607318659
1800,0.05314301366382306,0.00816373845953957,1.0116854148053884,0.10676011507172808,0.009975665781513779,-0.004296540304896791
1820,0.07618394598161547,-0.01779000068852918,1.0093838661180154,0.1763106296341552,0.006159921701444555,0.0005307568262433523
1840,-0.05545720784300558,-0.0068533919140736175,0.9906238295597725,0.20014802982274527,-0.013456241293068372,0.012187086486436407
1860,-0.06642475780970801,0.025788916868923657,0.9863188047487649,0.1177286554650233,-0.023532062733471318,0.0036759703203396088
1880,0.09671430564074865,0.009926132906064982,0.997909392381545,0.014148728155107768,-0.0019320408922308295,0.0035274089597836728
1900,0.05211694573859406,-0.01583649647939035,0.9923851794452178,-0.12819193364485765,-0.001729516166650664,0.00623255279050824
1920,-0.047068937651136455,0.023277740293618572,1.0119384072539792,-0.194382259317364,-0.007870094229730172,-0.0029881895286881827
1940,0.0005268842088963992,-0.0033808799273695594,1.0127099214904776,-0.23137363282599197,-0.009626325783408463,-0.003249204190946712
1960,-0.04099659808232665,-0.015822955671939514,0.9797370936895309,-0.14213087730227078,-0.004443624719905277,0.004005044230455997
1980,-0.01749325833768542,0.00877388444256404,0.9652322426422535,-0.018583953477137323,0.0011490182374662707,0.00640999840987723
