timestamp,accX,accY,accZ,gyrX,gyrY,gyrZ
0,-0.019749427466911072,0.014659877802077444,1.0248343942788318,0.02624425775930913,0.0001112509889325152,0.014290990882074162
20,0.04213093878467612,-0.007238855996294936,1.0053606498390222,0.10183239941886099,-0.002929555634542506,0.0021357109966249864
40,0.02887233430420908,0.004202917175740882,0.9591337443957609,0.20809125705913334,-0.01759918411065398,-0.011416165702339354
60,-0.061187176653258776,-0.03976521664955021,0.9980559193289287,0.17459452833713798,-0.0011156756187310833,-0.00036057860541578057
80,0.006119318514907533,-0.01134952714541931,1.0261514558137288,0.10142989391068705,-0.004872371850288841,-0.0016500921713281777
100,0.01574043396714621,0.0035766607130772944,1.014272004985474,0.00441844096322745,0.008552657478124509,-0.007700003420885852
120,0.048431759151523056,-0.010060081223336409,0.9652923040485506,-0.08816744779635598,0.0015555315066249145,0.011664067779375101
140,-0.08065759295723034,-0.003175142653842561,0.9940574134324126,-0.1559039763196944,0.004617221910886672,-0.003419863469727407
160,-0.022062255150305903,-0.005492914706472182,0.9938409219130947,-0.18128556275000773,0.008146715446366857,0.007646045745333226
180,0.048691613635642714,0.01925245486948403,0.9941256178505938,-0.0943791046275736,0.007600365400433092,0.007419222248568819
200,-0.04394211968606968,0.0015652899953366181,1.0043775062839428,0.010960250505246863,0.0037012412985740046,0.011995612971517064
220,-0.04613898003698339,0.00030075904367762076,1.012040466343139,0.1560333877059741,0.016186585735841072,0.0137372430768691
240,-0.05487713961017473,-0.02024334665563498,0.9788143470019085,0.1831732537969772,-0.021305094020354565,-0.004061229105326442
260,-0.12542064969276806,0.03995607833216335,1.0258805287541115,0.19602017029963553,-0.002953576810044337,0.00747204647998581
280,-0.056196807864979145,0.0023494680779796444,0.9725210724365703,0.0845536241996126,1.1589550998028633e-05,0.009569133413228889
300,-0.12537279765916054,0.033276701566294226,1.0130690306519414,-0.0019902313391400098,-0.004126440206439146,0.004481239896345384
320,-0.19570799926657761,-0.03768908742503505,1.0302716938258727,-0.12093623294839358,-0.002868313812534797,-0.01014155009820572
340,-0.369321849476103,0.01005962001438872,0.9715782969102864,-0.18770067010716954,-0.008798947322042573,-0.00941249440854087
360,-0.41245741123746293,-0.0016708695430904853,0.9817340892165034,-0.19938428255708252,-0.00646449312040942,-0.0024895779779432158
380,-0.4371887397450612,0.04891689248349003,0.9894739365849061,-0.09363772960921661,0.006463455959353877,-0.00041794227964518226
400,-0.6195955016415392,-0.0026042520948400816,1.0635141322363504,0.04143288175617471,0.01063277878899595,0.004332897950035258
420,-0.6619693057428905,0.009519351147581172,1.0107089301046273,0.1571319685033152,-0.019875910010424717,0.022073714447083264
440,-0.7740761727944462,-0.04059225377722713,1.019185256587729,0.16423236460389382,0.004769081812201382,-0.0013011254721042235
460,-0.9880921398813156,0.0015514421665249502,1.0040191639177154,0.17962517150567936,0.004161176591168675,-0.012313074786829976
480,-1.0198523260280803,0.000787338616217098,0.9717303635912893,0.08062919490982129,-0.014070843466079308,0.004480893296728883
500,-1.2431403717790714,0.014527243634758021,0.9823158375628964,0.019089546243495972,0.01799233378140142,-0.006616549934642858
520,-1.3220423884676673,-0.016239498270443888,0.9541042311920298,-0.12048945936834954,-0.0070590953232817204,-0.01887873369316841
540,-1.308790025175725,0.02574850095456252,0.9877838165932935,-0.18418236915671332,0.0026768015777383857,-0.016538346165967145
560,-1.4820906143219852,-0.0070515200214346695,0.989113991181614,-0.17275924905866274,0.006316935592004387,0.000843967817985529
580,-1.4391668792313985,-0.0228476957697729,1.0075004602913737,-0.07401763261911462,0.01322817129083,0.0027202476284094814
600,-1.5957178116727335,-0.014443600428830337,0.9718901867848228,0.008235780797141885,0.003811589019657171,0.0051396373504670155
620,-1.577755780762049,-0.005878263163592936,1.0106632996984017,0.18103395170849676,-0.0065766933156066075,0.001541640179592399
640,-1.3915309889355654,0.013170109672569498,0.9855159117789455,0.18337416150770694,0.008674040458243874,-0.015982340250021106
660,-1.2948955055963356,-0.038137866690137,0.994660873313996,0.17044613505921027,0.021939104179122038,0.0039846535827182715
680,-1.2610929616509734,6.095302340915747e-05,0.9906208745555162,0.10581649143694233,0.001934754297820606,0.0012292715642511262
700,-1.1969605757482975,-0.01961267687785703,1.0187689191155984,-0.059807612316245706,-0.005081220669511927,-0.0007340039499108778
720,-0.9786877226645091,0.008976256554893156,0.9877235370847542,-0.1193754636455621,-0.01501272832829374,-0.009701511088813577
740,-0.8922528049280758,-0.013885257142594856,0.9956387980844911,-0.18543530835736702,0.01792741312070207,-0.004166591148109168
760,-0.7386646652758454,0.033337086096470056,0.9917101779828695,-0.16631156193706323,-0.005372224160888319,-0.01942869596331246
780,-0.6069042115929209,-0.008997768481240506,0.9939489291039618,-0.0767795030540188,-0.003218933202147204,-0.008594659435995286
800,-0.41589780682652155,0.0272155186529176,1.028728496552066,0.05901299084225998,-0.00998117602200727,-0.003806376819149241
820,-0.4374459310538928,-0.006482008014412519,0.9853786379168903,0.11469265990791926,0.007437839832775854,-0.005748112317521581
840,-0.2626986797272904,-0.039522378220581564,0.9970805196638539,0.2101665691944812,0.003799521120979229,0.004115482187624128
860,-0.30267718275374955,0.001946469546050992,0.9868510493270639,0.17983569864185556,0.00494311262903245,-0.0024460539483980095
880,-0.14768354313171472,0.013399651580657384,1.0179279304512465,0.06716195770355717,-0.0007631188979703612,0.010511917304529416
900,-0.20994781849154776,-0.0069363182911662035,0.9845235835839189,-0.03778290220286411,-0.010123215982253124,-0.009173754390006351
920,-0.030899627958433873,-0.008115844193237035,0.9762258274798531,-0.19707742096867967,0.006471745589778207,0.030681020028657194
940,-0.09237707894214957,0.0005412253225550613,1.0110396079975406,-0.21977420687181062,0.005798310983301608,0.029806183060836284
960,0.03353892274497478,0.01531000750840615,0.9794584163987466,-0.182940357580726,0.007024246907100195,-0.0009514541635120176
980,-0.018134701664810217,-0.022100663768807146,1.016461323510135,-0.06637446604193244,0.007591020981457622,-0.004502920399868596
1000,0.09846120936656458,-0.002129356302298061,1.0246655635639308,0.062936599202965,0.0005140737396803443,-0.004015746509886255
1020,0.007181918598524191,-0.029680209129148406,0.9980212510718294,0.21709806521852235,-0.010860438264371327,-0.015547456233736403
1040,-0.08230448059983636,-0.011079189644265536,0.9894702823274834,0.1997478537835992,-0.006268489348323132,0.002918614397944885
1060,-0.0670878268629959,0.01174947066492512,1.0515508885693081,0.19519401450745888,0.007770484819469493,0.009344742024721443
1080,0.03165727208410646,-0.0048593111389235175,1.0254942254764952,0.050588681090999635,0.004107125029880733,0.005793766120606487
1100,0.025668707387171683,0.027059941658552484,1.0217517156091485,-0.055773603078097665,0.0013545434828931486,0.007971499899719589
1120,-0.060123331710268166,0.004987760443085985,1.0096278813555204,-0.16362332663107942,-0.003218064459352166,0.011095468267511763
1140,-0.06928856888609493,0.03081525269939137,1.0155806263697706,-0.20271558636423032,-0.007164058153086208,0.0022899449708615187
1160,0.020671561638816394,0.004058408837373227,1.01401303320242,-0.1635396409715786,0.030734602227746363,-0.004566670980412713
1180,0.030016964367949407,0.009437399519209067,1.0269364357627424,-0.06507019965146767,-0.01668849066409616,0.010154288243351942
1200,0.06209225738364065,-0.02471653965578442,0.9896416580610128,0.08447958118390358,0.004935045353772825,-0.009008302174312458
1220,-0.0009218323102315984,-0.014516270523812554,0.9898109790630834,0.1743919177666437,0.0014195180640013338,-0.00045611020746968365
1240,-0.017244288532100218,-0.0036823047958675667,0.973969277202965,0.22179935301861828,-0.005105878354508964,0.00872408233037454
1260,-0.04094590846985208,-0.048234589681041,1.004269040071541,0.1352056376317876,-0.005330917296540219,-0.009858912142595008
1280,-0.07938409163531353,0.034306466301325,0.99940083048782,0.02240944265862193,0.0013649105017951562,0.006809163153693937
1300,0.04299395687062459,0.002308897094622295,1.0117961766784722,-0.055196190125900574,-0.015957071810177633,0.0023750494239582268
1320,0.03890431612720277,0.003258914760596595,1.010704714493412,-0.18214534888233763,0.005646102045726614,0.008976247061247587
1340,0.06431390114420385,0.01779633980753491,0.9728996846016404,-0.20476502846016578,0.014987376313532717,0.004143879966452509
1360,0.051971385153752284,-0.01977923392492529,0.9967245647188012,-0.1340801286584787,0.0025414700527812023,-0.012882787424585507
1380,0.03344411480543688,0.005795446431782611,0.9969678448205088,-0.06882220693885846,0.0158327781708049,0.006668216531210529
1400,-0.017544469972208973,-0.004887173546853316,1.0410103072460497,0.0846546911438877,0.0021160403922220322,-0.0005227584671899274
1420,0.042755601346635815,-0.00872060268224257,1.0260157169771886,0.17420676708480684,-0.011721542161448944,-0.002472148125328245
1440,0.026963460422051052,-0.03140003813486433,1.00053011293657,0.2025796654422178,0.009811464369318101,0.0020662422578177314
1460,0.04797289918048762,0.014525662014051378,1.014059706551181,0.14818559391448463,0.004986541439055132,-0.001552777532281833
1480,-0.08388377289092747,-0.015864389106677687,0.9868567045660768,0.06574950059223836,0.0124336574538185,-0.009555127733656316
1500,-0.01068254980134003,0.01354743052340035,0.9921902396416604,-0.06351090293529935,-0.009876579538327733,-0.019670522110393506
1520,-0.018522352701175762,0.009330833226396077,1.0471636071151886,-0.16002570293192678,-0.002115628932731652,-0.00657565505856844
1540,0.028227120264458595,0.01785962923435159,1.0471280412400965,-0.1806572374560583,0.003564011346313344,0.0014663138906270846
1560,0.082954072579322,-0.030431888594442402,0.9742426101569255,-0.11769871112419625,0.0010544128362975933,0.001204858491920933
1580,0.01701935404944777,-0.0065071096093401405,0.9811339173084108,-0.05581552118146818,0.006678156741979143,-0.0017417542230536295
1600,0.014691300528568794,0.006066392888382366,0.9914933702661668,0.08869696069770767,0.006845206458739002,-0.0008010703179538699
1620,0.05919726315684211,-0.010202045931600366,1.0129558751796996,0.18702442777335201,-0.01848186271685429,-0.01990568160850352
1640,0.034252185659535715,0.011500680374640025,1.0046582308773218,0.19726837410887654,-0.014081908835957863,-0.006178420640865599
1660,0.021458605998175978,-0.03367811984251511,1.008130238999154,0.13921641111735514,0.007906578609930656,0.014612833844241705
1680,-0.01747742941753699,0.03540977531828173,1.0071841679626308,0.023573861139592266,0.0005408342691858629,0.012825554088241362
1700,-0.01730230699464779,-0.04606665576489199,1.025997830667016,-0.11594283905716748,-0.0010066757335416294,0.006206614405714374
1720,-0.006490394028274182,0.014400308734075757,0.9921772970195394,-0.1782099441797785,0.004324424934438769,-0.016324253969603464
1740,0.04793208460505932,0.01664225611170999,0.9755125371787987,-0.16480914998648796,-0.006181827627929602,0.0052614312862405
1760,0.06489007167726228,-0.007458853388906577,1.0366210372764104,-0.13920948285989887,0.006124470186147034,-0.00028709604000675223
1780,-0.04703188957256672,0.0035655680833788094,1.0080781591030512,-0.017269388066876768,0.012737380428263508,0.007628329983422027
1800,-0.0008829753732986884,-0.004232926836474639,0.9733737770983646,0.10930790668524798,0.02239420897593217,-0.006264967643265626
1820,-0.005656103612373126,-0.02015773223167814,0.9893276314267366,0.19144451383063243,0.01206280553847483,0.004754970033662672
1840,-0.00559222442323161,0.016747903244508852,0.9874782582951601,0.177319189430282,0.008965471361966269,-0.0033072183023696885
1860,-0.03586653473197126,0.035453962073115915,1.0273521166562982,0.12966063848941778,0.0011563136809351038,-0.007053357828612617
1880,0.05291394166468312,0.03954613561402294,1.0172550891107686,0.012371937624966863,-0.011506667179056266,-0.010474602247631186
1900,0.061589705044400866,0.010603360584204332,1.0173247583868297,-0.12502616746084405,0.006507591287515629,0.009147120034117934
1920,-0.026710494885497746,0.009290880527082197,1.0226269504472165,-0.21837977075575904,0.005844556459849249,-0.0103158838827946
1940,-0.003414215458950362,-0.003444413978005868,0.9810566643970243,-0.22480335994919098,-0.0012168256296849738,0.0013130702128561203
1960,0.04475747758191628,0.009358411703447221,1.0405113954036953,-0.12525752738401824,-0.005478910500474287,-0.00274942747440673
1980,0.02497887147828675,-0.0011619319048360806,1.00831874590784,0.0024652736813476892,-0.0062398503717897725,0.01023235671059991
