timestamp,accX,accY,accZ,gyrX,gyrY,gyrZ
0,0.007693095879081986,-0.009721736774993786,0.9830471091822277,0.0014043829487003679,-0.006557460520795377,0.00260522802054053
20,-0.03605217566905681,0.0035650386886634184,0.9801395084768921,0.10615333314056313,0.008881140393692078,-0.012830566805842242
40,0.036135161843688667,0.025726590180819537,0.9863181189038525,0.20066415521765962,0.011099797112552138,-0.008469326517792116
60,0.13396553180291243,-0.042872311901141213,1.0238353001937968,0.19110569926091733,0.002517121170324291,0.012017824290626016
80,-0.027917579135646967,0.018635691578456383,1.0035808580688255,0.1179496064483,0.011077600359381212,0.0007817656875996618
100,0.026153849399173475,0.0023165196969719814,1.0086806639644899,-0.024760805846531068,-0.005387637552116504,-0.009373643257539309
120,0.03316012533779336,-0.0008719348211227535,1.0262693770376827,-0.10943265450480355,-0.010696718331388189,0.0031336182860295025
140,0.04769372877214413,0.01910509258185143,0.9797506490523844,-0.20286586415414606,0.015533557315392328,0.006765743447472574
160,0.03465024616201877,-0.0032660437011734463,0.9848893087675578,-0.17022488409293374,-0.008077289601274294,0.0010037691572189074
180,-0.05490105520386997,-0.016888769030031735,0.9841470395180963,-0.09810357886175194,-0.011163961663276495,0.02576888877165643
200,0.06897124631131618,0.012124242382930249,1.0289459179122569,0.010846228826116855,-0.0002534926374607657,-0.0037339478759363786
220,-0.01865702389326883,0.008297717638415887,1.0005887421458057,0.14059602316457606,0.004329351107058301,0.007834807772371763
240,0.06650867556586458,-0.009784525240237691,0.9840532555806804,0.1610736066595666,-0.0069915508990146214,-0.00033712512126491653
260,0.035637636645327764,-0.01282660718858749,1.009061805858961,0.1864737480122224,0.009206410765112411,-0.002875878444758809
280,0.058115363884766055,-0.03212520281073857,0.9910139812289065,0.13155511351032098,0.005785653723682321,0.0010344811069088577
300,0.2074010037010438,-0.005170787834163378,0.9833924986154122,-0.031852385502330265,0.006332675634841316,-0.008673527168345005
320,0.2529591093113019,-0.012033178040262086,1.025003693765983,-0.13130146052626895,-0.0011659313083978305,-0.00418376772945636
340,0.28169848100950634,0.034829627474031004,1.007698460778119,-0.1625475830688505,0.00925113944493271,0.011866795194320252
360,0.34513282938016815,0.015130215507108314,1.0145404898674117,-0.20747698156614156,-0.00850118997226183,0.002326484324505427
380,0.4812264410945751,0.007337988211525632,0.9714423685287856,-0.09740892816603502,-0.014519590622223718,-0.023522676978276924
400,0.5473327330703348,0.021054631452351952,0.996373504154767,0.01306437080311943,-0.018827316100576336,0.002503757951898436
420,0.7148323246293323,-0.008799251499452687,1.0067359359251422,0.1500716164381565,0.01268669963285001,-0.004995825602161
440,0.7754802160750898,0.02617586987419947,0.9271685237441307,0.178875903260116,-0.004334441492191234,0.00876178970332693
460,0.9215319877692948,-0.03127124063186397,0.9840556014318923,0.20064301990903066,-0.011710313865168957,-0.014164803785291183
480,1.1210764045626234,0.0017627744900820532,1.037347872912566,0.0729565006545603,0.003105242494216569,0.012935418761660187
500,1.2847108322961303,-0.014287710828440648,1.016226771965369,0.008900563998133167,-0.013412953878850204,-0.0011729099449732567
520,1.2795932139915656,-0.01871660044480882,1.0434355519167835,-0.1598449909751259,0.004111318715551419,0.013606475464416165
540,1.3699953386261643,0.013653591543127161,1.0123060834486965,-0.19283134351703538,0.0017685134073991196,0.011590008964507082
560,1.4144998191482,0.030974466160192015,0.9823918686352865,-0.16585514740827714,0.00382498478804696,0.011911775011401771
580,1.5123712948890118,-0.03919568012134347,1.0088143881551694,-0.07548096235145758,-0.0040794307171379655,0.004002439599830927
600,1.4949411733991058,0.015803021950608398,0.981799588889986,0.023037308627683353,-0.0017967343313622668,0.00990584313978632
620,1.536818568256771,-0.02265083633914341,0.9981253484518131,0.15364975516137394,0.014236866050592807,0.0025700974166392486
640,1.4500286685635977,0.045848187212819906,0.9986711833129961,0.21332436471375765,0.009059003448849393,0.014292667798940534
660,1.406534105514665,0.003642041670256405,1.0184648082766332,0.14952253365510182,0.011812593106514313,-0.0021658451808747444
680,1.282505167697895,0.02432584008732419,0.9792880670105565,0.06297233378665287,0.0013609462619457394,-0.021760146687921908
700,1.1528188963240495,0.021841153168082734,1.0172427091961733,-0.03702615181330267,0.017020848057749692,-0.003469498802447235
720,0.9939482746467114,-0.002907843965473722,0.9981058199362602,-0.1552191641155514,0.010590192740096155,0.012101122450225075
740,0.769411745896526,-4.971511424952224e-06,1.0048064655113906,-0.1872990130078741,-0.0008482249413063981,0.005403162040777863
760,0.7564132447833064,0.023256395158212574,0.9851488238684889,-0.20044692296365488,-0.0010096042781745597,-0.008370347305180664
780,0.6186478730781712,0.0027864407295234003,1.0333474915974288,-0.08129587132003922,-0.0012137086514305054,0.01906321073269207
800,0.5435069081711086,0.03975468465409226,0.9635877936099733,0.06110156458590556,0.0038886207109467526,-0.010573431166971164
820,0.40087001662258026,0.02353681462265221,1.0009425666372604,0.15161684247616544,-0.023811571109943214,-0.009601079424809618
840,0.29368724300978283,-0.008821298880967372,1.0049232554723149,0.2461650626323147,-0.0024812703246242895,0.006397298449989965
860,0.1954281745758273,0.028333985616681323,0.9959434016511801,0.16807637107961212,-0.005792226972657795,-0.001949064304360629
880,0.2564468940253224,-0.013282216733500676,0.9908611651062207,0.10137115287322354,0.007345505921898003,-0.0029423033869457283
900,0.10883990534724021,0.02855727849787002,1.004962664804904,-0.08218512616272804,-0.005205357384235736,0.00874640249885806
920,0.07914224034381775,0.015676944099284877,0.988746205921195,-0.16528587944161258,-0.0005090625247049645,0.013897314179481047
940,-0.08640351585833514,-0.03130372257533806,1.0393077172361307,-0.19157639391428577,-0.0016261794299034155,0.006916240149324281
960,0.028189859524431937,-0.0033621490538968297,0.9716197940196227,-0.20911479280966014,-0.002727442618619829,-0.012770344122984098
980,0.05256298639285105,-0.009089768426174606,0.9779642096699883,-0.05972178250538932,0.011998697058263412,-0.0009063929222417304
1000,-0.00945059985945431,0.011455574954610939,1.0307470533070022,0.0836335545887537,0.015447454146955647,0.0006008210054399129
1020,0.021412040393894428,0.015808465645935917,0.9902153825326113,0.1331452774518994,-0.01714698111912601,-0.0012194248525486911
1040,-0.024287173633154368,-0.00872691935879333,0.9907740619088842,0.1915393094774056,0.0011709380363765785,0.005127284836701455
1060,0.015454758102150816,0.0043870951201899775,1.0119546775287809,0.15492954771397757,-0.00861967849401767,0.011963171597999764
1080,0.05588760851186396,0.0021056290068721855,0.9852740534896215,0.08650191251282996,0.0018324596541771166,-0.0025086089535341937
1100,0.002015662431337367,0.029692231757428588,0.9916573532719388,-0.10023467590649321,-0.005833872110078118,0.0019512901426349124
1120,-0.01215488169342875,0.004845462455328136,0.9971652782617759,-0.1656139382619055,0.001067519661353563,-0.016474288255693324
1140,-0.020892062646681912,-0.018936393038847043,1.027887670294316,-0.1850395103090421,-0.010609461499989628,0.0017894254830492773
1160,0.03160190729732767,0.040110499925173064,1.0021942846341176,-0.13951546845486032,0.006312995780124689,-0.007512126113266494
1180,0.06598181532186773,-0.03223736967780733,1.0087956382997563,-0.01813058840119957,-0.005532347454045896,-0.0069906015086995685
1200,-0.049505602576385435,-0.027068512540854985,0.9894691015876174,0.0688890903299148,0.021374861803477523,-0.0011571120361548602
1220,-0.01940058270485135,0.00351691767192542,0.9883199625969572,0.1745932648559847,0.0011874692397776455,-0.00032840883362064395
1240,0.04542427628336891,-0.0008995308645740809,0.9880053543422063,0.22906534951231963,0.006292188792280911,0.011428645464101297
1260,-0.019878056717116288,0.010087525376304585,1.0280008150096633,0.13957764634275285,-0.013070454740038524,-0.01937916168944341
1280,0.007391939598380575,0.01427600099975577,0.9742507440228566,0.04842201219180544,-0.009928636935933084,-0.004527478349196927
1300,-0.07096850648363387,-0.02131172692897962,0.9877121141826458,-0.09250155676140762,-0.007212855439200935,0.004155512532694624
1320,-0.017081620466755126,-0.028524115060752437,0.9806645005603346,-0.1895796924485678,0.010608104180561937,-0.020426106944255278
1340,0.05581938642832784,-0.00371578382304111,1.0084014079657555,-0.1673822340032401,0.007819879578754562,0.004185786008805446
1360,0.03731579724960876,0.03521144186015412,0.9746173214084286,-0.15194240984097415,0.012772864961080233,0.0032796922719286084
1380,0.042307598457401896,-0.009594372383152052,0.9841800713845901,-0.028413483131310195,-0.005159957185408133,0.0022274528696566566
1400,-0.0027560183046494192,0.0008932884515460813,0.9853566454785797,0.06822275430356381,0.005608096850857903,0.010969201065602263
1420,0.008811908640357398,-0.0012342120561540941,0.9595772944744234,0.18311818200270974,0.004838051808678619,-0.014565829561705244
1440,-0.04406019077949028,-0.013540244077280666,1.003628230600191,0.18258554129429486,-0.009646959620943448,-0.0013452709686449097
1460,0.041149122764197646,-0.009359260431903039,0.9767107196370497,0.12617543522954547,0.008107890003993692,0.0010263031241313357
1480,0.04583813509263077,-0.008652391649095538,0.9898451729185979,0.026676791229124218,0.005487334533496278,0.0036988160755660206
1500,-0.01602576856180685,0.020293920046326727,0.9687297660467624,-0.10371478241708461,-0.021281890950301863,0.002503485901961987
1520,-0.055029394604414486,-0.005811423352739444,0.9992768829210197,-0.17271181860672355,0.007862646076246338,0.010088447199396831
1540,-0.08969511935407962,0.0295281702502527,1.0034599117856324,-0.2081313247623519,0.01352310702408362,-0.009960165283180679
1560,-0.015550275188741825,-0.009174614983912316,0.9611955795336343,-0.13566100526973737,0.004129338639120158,-0.005699190146088757
1580,-0.044696998833313066,-0.0019823636711642466,1.0255140429400191,-0.04270343676123142,-0.0026024132649372683,0.01324729569163029
1600,0.015647539160072308,-0.006012258780852469,1.0170642726050767,0.09268028820199421,0.0036021691146786846,0.0027477452317976538
1620,-0.08104553747326346,-0.013741356342491141,0.9836080473574761,0.19581029489544877,0.004598744492304029,0.009214589568796217
1640,0.034854858440336756,-0.0006581788900428865,1.001880518907198,0.20924006451127689,-0.008248937088620668,-0.02030794254881583
1660,-0.034589754575932045,0.0074523186805502606,1.0018482606516743,0.12612123764621452,-0.011915867253972548,-0.002984413530098096
1680,-0.012686968955833591,0.01826675580803927,0.9895123110513784,0.0325853267215321,-0.007611696228478416,0.016595085115628405
1700,0.008519991189903374,0.02341356892071712,1.0298183994786752,-0.10030014071962932,-0.007943811431890978,0.010842514114765354
1720,0.02915213436658908,-0.009279906810493777,1.0359731097799416,-0.209819897267392,0.006479043945005033,0.004593873106593242
1740,0.025953941984957807,0.0066501253476522314,0.9927370331249835,-0.17637236369105358,-0.013319615357904777,0.008392741690664016
1760,0.022983678386466536,-0.006172681833725864,0.9968854721662539,-0.13744735978162298,0.01259700245004624,0.00767656305556018
1780,-0.04781572372856845,-0.016681114821633206,1.0320752257710162,0.014030525549668046,-0.01508807057518677,-0.01124113521150849
1800,-0.05945951946273315,-0.010786746776110497,1.0082725370215537,0.09403991352782005,0.0056476478486995945,0.028963959698368718
1820,0.040137664163192206,-0.0018982649976360124,0.9982143138153712,0.18858971574245806,-0.025033820192165556,0.008688875739915591
1840,0.013605761047757356,-0.017542554733405644,0.9989978188388214,0.18450138125268575,0.0008711673390424253,0.007228885171679395
1860,-0.017716389111841126,0.0096266120272616,1.02481671233845,0.1383544343282569,0.004840442220502824,-0.011156244431701498
1880,-0.022353196433465373,0.0035956299491393833,0.9827633450040645,0.019384383459769172,0.011984438481954468,-0.008245729501868358
1900,-0.01196700963195251,0.010324880051589078,0.9710093736950628,-0.10036254239664387,0.00984594118817681,-0.009397570797882913
1920,-0.039335073821220555,-0.0013080301369309403,0.9817986380398176,-0.1938529929961261,0.008420542706473598,3.165094322364939e-05
1940,-0.024747308077310577,-0.009752648527117788,0.9900764992346945,-0.19107871022727096,-0.03118134706794051,0.007029397687616389
1960,-0.0027953407904954923,-0.035338054629118584,1.005917031769842,-0.09481724458590696,0.007737153215542647,0.0036878889476418615
1980,0.04843789799832579,0.004773521070474693,0.9875536447477467,0.012105698053851416,-0.000951295960166676,0.0018894983264623778
