timestamp,accX,accY,accZ,gyrX,gyrY,gyrZ
0,0.016306420232936016,0.004793129847858643,0.972500041494997,-0.0016908138976941853,-0.005099342157978295,-0.008976116442322627
20,0.06748690675425457,0.013813389953590731,0.9787626367815203,0.11018246443340053,-0.002908517662364859,-0.008671156426223377
40,-0.0466282646522121,0.0036718488636520007,0.9569416867813408,0.19725059170353065,-0.013935124963215213,-0.008736784784383663
60,-0.022340167204621654,0.015924302390546707,0.9951715472566851,0.22651600314460887,0.0035246302740481006,0.011113127196053858
80,-0.008850432980884965,-0.030610033139785404,1.009989107796409,0.11367769239580001,0.00045540768132235955,0.005824575870267502
100,-0.0356307916999059,-0.06271550108916289,0.9797623270129915,0.01370534333874152,0.0025052577713630614,-0.004894966895343876
120,-0.028670746570904338,0.007591985754247307,1.0111164302600681,-0.1362010168808702,0.007657589342971939,0.014567076547474205
140,-0.017468299615847154,-0.016190947523396476,1.006008479961777,-0.1814420733180699,0.0067544214162440245,-0.02462952150823991
160,3.867786387104326e-05,0.00150301974864721,1.0212068272487604,-0.21238268885733863,0.0003000332359787097,-0.0014471989942455414
180,-0.028423369175146575,-0.005763497421818003,0.995122916272892,-0.11541981988191911,-0.011349465382860436,0.00025653807192839933
200,-0.011373412318673594,0.012848568663893604,1.000258880018536,-0.03974891589421194,0.00672241234638239,0.014555680613307179
220,0.0043468625586996,-0.005067390978579015,0.9849523141989079,0.1448988548058292,0.011392096695188174,0.011413271242536374
240,-0.13157693235795334,0.026909240346327055,1.0387519663926008,0.16316120158505823,-0.010099642036966512,-0.018711031269324586
260,-0.08456741790728922,0.016255329381736395,1.0233149323408626,0.19094813922330345,0.004207109485702721,-0.0019655974319414465
280,-0.05889738559926163,-0.002760660112770826,1.0434590573160933,0.1108518488977402,-0.0014571102435383477,0.005987428029569665
300,-0.18117793937129745,-0.005362123586845653,0.9889011811692388,0.006720336644004184,0.00993780949144617,-0.005288983821183309
320,-0.23038782304486338,-0.003806134134018681,0.976307842686978,-0.14418944091137034,0.006834655972732209,0.007329028624374976
340,-0.2913417445536001,-0.03474133921663447,1.0234871332188487,-0.17429494756708158,0.011179008066709547,0.009864635461924873
360,-0.39411745518628527,0.002505560276337413,1.0150875184721173,-0.19953667875510206,0.015138848941033749,0.014887425955248721
380,-0.4726258507884551,0.010956217255962028,1.0233254780695384,-0.0610150351972834,0.006533879041334101,-0.005469555398352566
400,-0.6361381000726913,0.020893772308514236,1.0174609319727028,-0.014895128182806763,-0.0012395627755795373,-0.01633090225026216
420,-0.771947849405066,-0.009289160771263585,1.0235049472947975,0.14552520822417467,0.010370400242125415,-0.017298071234202572
440,-0.8277051420407017,-0.009122744988667228,1.0307237158514506,0.16485409852510718,-0.005745016446242353,-0.005981399835759614
460,-0.9949867855594808,-0.02273695916128799,1.0213833025689827,0.1901592615955225,-0.007874622931452233,0.0070499308472097314
480,-1.0625698879869487,0.003546007644407342,0.9812589151745921,0.09466548704575015,0.008061830870369444,-0.00851784518250664
500,-1.1949958371993514,0.0005060168558167031,1.016959752487037,-0.020656784823837746,0.018141058322870024,0.00416646036530976
520,-1.3336689490014462,0.005680381120811369,0.983538974886928,-0.1404412677221569,0.0012378709303455394,-0.001036792286574459
540,-1.3208659183691585,0.02677062250878599,0.9786194106853028,-0.2049963545372929,0.023813205375053742,-0.0006939879007307193
560,-1.2918091389158721,-0.04661647266017114,1.0173797777530662,-0.16461341854135683,-0.00693832760108773,0.00556489442263828
580,-1.4764196688866054,0.011897920537618708,0.9656003341556141,-0.05982901486143644,-0.007541993985247736,-0.0007853887533445371
600,-1.5377971260726204,0.022724908799405016,1.030175360749051,0.05108020354883096,0.0004303492240925372,-0.013777648718447826
620,-1.4856343135182446,-0.021087643856766647,0.9826558030366245,0.1592151746379698,-0.010849090901567484,0.01282684069003049
640,-1.4037414938429948,-0.006213726455734343,1.0395497708562111,0.20028126959690806,0.0029770569655289503,0.0010842452262289411
660,-1.3598706296681493,-0.0063257770614077,0.9893721237601885,0.1348713961431881,-0.005577082515286404,0.0037634036404749637
680,-1.263339340970016,-0.021184863206768764,1.0047981461805873,0.0948279933141748,0.010689549801302519,-0.002859685950515449
700,-1.0725684545353156,-0.020316859689009287,0.9922375814308121,-0.029455847996017387,-0.02029779696337443,0.0004009027634909581
720,-1.0950629173446376,-0.001882252934564741,1.0025513578728165,-0.15303979578576282,-0.004550005557850568,0.00579821537485979
740,-0.844834914168123,0.02006739933344494,0.9800786422880023,-0.21819194373865117,-0.0014127391017802122,-0.0252603163777138
760,-0.7288358559940394,-0.01899147541904964,0.9893760982698426,-0.17164200013113234,-0.0010768728226440664,-0.00813604787264587
780,-0.5903643065038737,0.03710863963809565,1.0096681945834873,-0.06108394918083261,-0.01342831600439822,0.0005622070378906777
800,-0.420632414858451,0.00751305092769814,0.9986932460059691,0.04699419537197947,0.00042739264964618165,0.00020494645282625798
820,-0.4848725209372768,0.02686267313558933,0.9966369417651219,0.16175143920691007,-0.01298708264820126,0.015254352764016184
840,-0.31868801164854665,0.022538895953172884,0.9868335648707482,0.19106294504358268,0.0024385277169499805,-0.010776268163490435
860,-0.2885302641308114,-0.011121883697227036,0.9963529418007073,0.15482100040209448,-0.009611503813827235,0.0077688081271203805
880,-0.21096795208361763,-0.01306702937600666,0.99897374313913,0.07059897711180005,-0.009381670702171675,-0.00835687812294401
900,-0.14808415887703943,-0.0024909311332929093,1.0172745014232876,-0.06150524199312361,0.005555181614283204,-0.004720948251451229
920,-0.15794712435751387,0.014362205578776209,1.001487959511741,-0.132041772328584,8.696672624059711e-05,-0.0013878706428014534
940,-0.09723226410776845,0.039745764723938794,1.0135780912743964,-0.22606975617886818,0.006693802912240533,-0.006848177361930245
960,0.016524072599427987,0.009505715236744218,0.9816853825029354,-0.13466966130907934,-0.010820636196031231,0.018346083760037084
980,-0.04727133272649015,0.0003073192698626463,1.015916269036658,-0.07381180912772944,-0.0032839942017749784,-0.00987693755830729
1000,-0.03978925067159127,-0.009794408491709842,0.9965296358350509,0.06047483373835461,0.01554382263594751,-0.008168038767233229
1020,-0.058712202301505464,0.022893702052204475,0.9798890086499611,0.14178997212542177,0.00984860874846244,-0.0029283259134887814
1040,-0.06090070174586401,-0.01265774383508986,0.9864760635647625,0.2121450720847899,0.0020150852026536133,-0.001253580586471909
1060,-0.09430893934041878,0.015974161408768384,1.0098585535034035,0.17436638571701238,0.005587266504014614,-0.0047408964154606395
1080,0.012097214175413293,-0.030922247838866563,1.0152322841997943,0.03381925616967348,-0.00164451248900268,-0.014640857275287706
1100,-0.024202915036409194,-0.020166681985252895,0.9603179576114261,-0.07080062427638595,-0.0019145893370583532,-0.007321315803353662
1120,0.02533847011453427,-0.010721713757692515,0.960256372447854,-0.20632082814690123,0.018970552176546834,-0.0035308170360802546
1140,-0.027277097040061097,0.013615112509320125,0.9963093427523315,-0.1892822438231811,-0.0012349726499973556,0.003329300920638741
1160,-0.018193025970068617,0.0256432535067033,1.0060343446785704,-0.09009761765868134,0.00484300906051665,-0.000277107210968855
1180,0.014191301336824285,0.010097546906656934,0.9909359273562565,-0.03461390663483335,0.0047046552592795035,0.0027301300308823725
1200,0.03253290292892472,0.010899527125312818,0.9880368502393169,0.051162891302063515,0.013723494754745413,-0.0027262332051918472
1220,-0.0359042490005071,-0.009633944747674483,0.9870199809505589,0.15146410947964017,0.0009922866351214084,0.004199582042033977
1240,0.05186780240778358,0.039802291516882915,0.9514967542180267,0.20306670998104479,0.002516864921559405,-0.0011200742473705155
1260,-0.01676723400243155,0.010602257726645149,0.9601654577564613,0.1343137745613556,0.002587944777135826,-0.004374840139819401
1280,-0.10152229502588868,-0.030008121834297526,1.0029939774060161,0.03625799753756948,-0.0018185041363378035,-0.0006335679177343201
1300,0.03462361033955423,0.01664108834363772,0.9993218609217992,-0.0831627876034151,0.014488211322845664,-0.016186773924385313
1320,0.0078495589832319,0.02998200706124156,1.020198574675531,-0.15257312189082506,0.0029257214220905227,0.0011321616457300402
1340,-0.10164786899997597,-0.009948858040132945,0.9729467408530991,-0.2268336764842978,-0.014468467075527737,0.0007468001238873177
1360,-0.006167709730567825,-0.004339089733884831,1.0397958717221698,-0.12800032572405268,0.0034814100076273704,-0.007062258831803638
1380,0.032309266332894826,-0.009039906351296588,1.0083273997574513,-0.016477826056209746,-0.0029011229866696842,-0.009548478074024739
1400,-0.018613216725487897,0.014955698201849511,1.034489823827009,0.0654193267351493,0.007006373388052165,0.01251006213350657
1420,0.006402248076193497,0.006845223534288174,0.9874653382592178,0.1451836180509323,-0.010436829778317473,-0.006091705365127549
1440,-0.022428456298695665,0.020150821272858797,1.0027133665804124,0.20072035898946372,0.0058646098630191395,-0.0017670155968316295
1460,0.053703481907753425,0.005647864272675321,0.9784089637227662,0.15543486975999674,-0.002893599971513596,0.02354497885223134
1480,-0.01104355810294841,-0.004752931040506004,0.9766390977774747,0.039721894562233476,0.007475368620279211,-0.008845979524031083
1500,0.160080927563549,0.0008581056520929643,0.9443477270237999,-0.07981000410721067,-0.025053551310148352,-0.009126393416079615
1520,-0.07681964803482697,0.0028267274400954516,0.9686154293790813,-0.2133810749441177,-0.009729321251067692,-0.0013251327677505807
1540,-0.023810447174169542,-0.01950851764508021,0.9610052873501681,-0.20247060426679803,0.01065023647322125,0.006013819330299053
1560,0.06817465163549426,0.020752120948367887,1.0193409646694096,-0.14167110242703013,0.00513070908635533,0.011879190483679674
1580,-0.002346886229949733,0.010358565117995894,1.0186597128706059,-0.022298350281391016,-0.014990759345870854,-0.0084780639566085
1600,-0.0602969020129927,0.024032112150632202,0.9696900735525704,0.11938620863151496,-0.02046487502956981,0.008213236138738473
1620,-0.04286168368264365,-0.01404594097119939,0.9761613362028667,0.21686705201997009,0.0016684600793925655,0.007188746533891133
1640,-0.010109920307679177,0.024222555145544958,1.0038479539017509,0.1712493643924176,0.0023521340587466747,0.010987680797745755
1660,-0.09100033822538924,0.031413941608885346,1.002921222618914,0.12694043145223505,-0.010779164435542865,0.007635385293022708
1680,0.04716056227363559,0.013094583516376395,0.972252488924909,-0.013584710303509752,0.001989121245328937,0.01305625699161883
1700,-0.04751266497469518,0.003451093868744473,1.0011679272627014,-0.09214947858648029,0.010799908336956224,-0.0011560283977395567
1720,0.06983151928632696,0.002256391810512728,0.9964979555799365,-0.18180124898788796,-0.012934565386659727,-0.004737274625235147
1740,-0.022601604603547144,0.01768859590185922,1.008026430487596,-0.18580128433748397,-0.004172878243884886,-0.0006471593774660964
1760,0.017074999211954812,0.006348460340841576,0.961847630373078,-0.09573847736018315,0.012268635773685784,-0.006267879082838387
1780,-0.06732900034759631,-0.018624403762328184,1.0050565722306968,-0.02682421002535628,-0.006251182474941689,0.01195774570549465
1800,0.005982014871305461,-0.014165374026486786,0.967188259000103,0.097995212266715,0.00964973277653965,0.0021555496049394927
1820,0.006721309179866926,0.0033665269609704737,0.9919750887086026,0.15803970154240046,0.00162121442318901,-0.010000829094034533
1840,-0.05336116541090702,0.0033265083657513066,1.0276816372706898,0.1676525973157435,0.006834581419211401,0.014222154735070254
1860,-0.07092155649829789,0.011619711898002516,1.0373960005997196,0.14424869896217718,0.0026846925547858737,-0.008151149338456114
1880,-0.07661609757309816,-0.011871510250081527,0.9873739160629639,0.007827923830885843,-0.0026159852567946666,-0.0015549473589130387
1900,-0.057172866454280706,0.0015259501386031844,1.0027478476642777,-0.13742949675276686,0.007128771300638526,-2.741319262114055e-05
1920,0.03117015586559173,0.025634500334844743,1.021682107988648,-0.14124997960343869,-0.006063921723121617,0.010351672824289075
1940,0.017243583867281326,0.03859749382331809,1.0021321200631614,-0.1975048684327764,-0.004076825890391613,-0.004900838678115495
1960,-0.013679644024309247,-0.009513693222604772,1.0238486840608119,-0.11168980212610116,-0.016548950853946105,0.0036804894842403795
1980,-0.0007156399637372542,-0.01573864922090428,0.9805269691886023,0.027091194442883472,0.00010787798281478932,0.01308622961180997
