timestamp,accX,accY,accZ,gyrX,gyrY,gyrZ
0,-0.011049817217233391,-0.02473718318829525,0.9570475167622042,0.021491220417819985,0.00581951164661538,0.00519353443350455
20,0.051170445425637555,7.490992968377682e-05,0.9691969605637025,0.11723600421956153,-0.007111874391980403,0.004397990201330602
40,0.012220794235067882,0.005562169555004866,1.0226543140427595,0.16773456280943128,-0.00647132056750168,0.002282624852976143
60,-0.0015047211369725753,0.015999341146817288,0.9971560266804003,0.23448951952442637,0.008967479865030189,0.01731276133801261
80,0.03757960258223992,0.0024290014625541895,0.9783854018984103,0.09532793391429051,-0.0036084937750879577,0.006746566930167156
100,-0.031773907650498236,0.020488558827396263,1.0254857475554873,-0.04228581009211481,0.003461928516728069,-0.0115017631626842
120,0.004017713353115151,0.015488833447289126,0.9881071591143396,-0.12746232134602667,-0.009017929484055524,-0.014299680056606066
140,-0.012387403772008877,0.04587274653913971,0.9854974002030196,-0.16617499139729686,-0.003912542878284417,0.020657852430584562
160,-0.001281173507061856,0.04040873794410811,0.9973725971283882,-0.1861662881906437,0.0023181764553369248,0.024740560308922088
180,0.04009213564200913,-0.00011953514788699101,1.0051025756666212,-0.10470897422997687,-0.022222053468097972,-0.005253795021818643
200,0.09486610090994918,-0.0056576379765339154,1.0183709506327994,-0.0025193687364052156,0.009030437991008926,0.004524475472853964
220,0.07416771077142156,-0.013943911248256044,1.0244290522905795,0.13841521561550577,-0.00037375544176590226,0.004754554532117885
240,0.07950628479610224,-0.017683154549257153,0.9819725385911642,0.22571467605942758,-0.007965690833440663,0.015594531980649416
260,0.04644477049203974,-0.023481553004875217,1.0205823250536759,0.170656178115002,0.0051750305870696825,-0.008357848758728583
280,0.1261371474144244,-0.02786511691154231,0.9773585536818553,0.10899148518768652,0.00012433247067311558,0.010890429004031985
300,0.08897227731223922,0.01222828145034194,0.9964921540446205,0.00556272610543021,0.000850700282790695,-0.012258837396249911
320,0.18432090982290933,-0.01575967861572487,1.0114501666161686,-0.17043476398488833,0.014646791626379193,0.0014539736451659672
340,0.2339196109780252,-0.011793905299878567,0.9741078824690498,-0.17381920073412235,-0.0014667567729990463,0.0073356162688353
360,0.35980145893933746,-0.01086671357498562,0.9828027298573825,-0.19360253011836187,-0.004039125341484983,-0.00487147031465399
380,0.4299660121985736,0.004709223542086435,0.981645644509153,-0.10622845836060772,0.0011003404134833075,-0.0010732597029003955
400,0.5908558166901071,-0.01203790397238437,0.9843740970151573,0.04393719870111984,-0.008205929385284663,0.010438482242596062
420,0.7728628558783587,-0.013892390231023108,0.9891644817414849,0.1297818335555684,-0.011983598787419766,-0.0011986435626800802
440,0.815260474278996,-0.002142464980947118,0.9966259998953749,0.20830059085097272,0.003063360884635841,0.00853090143788992
460,0.8953746403445086,0.024054000068921947,1.034380554840705,0.1693656073542828,0.004230412229471602,-0.014161103354853637
480,1.1515838967087042,0.0037480707057246034,1.016040619256878,0.08262193198184706,-0.00036117722201278317,0.004191527930029086
500,1.1433808176883644,0.019459998769428857,0.9698997100338811,-0.04261447042685386,0.008552603620456128,-0.0004847470234391149
520,1.3708066472070406,0.026405190182122746,0.9777798778076894,-0.13751770748406236,-0.012189991645116218,0.006525310842552438
540,1.3707080215271437,-0.034828578939893856,0.9880928316498774,-0.20026169985530054,-0.00462334624511484,0.004257546249374979
560,1.4557490224408196,0.00887251394856038,1.032361660063344,-0.1786922505320864,-0.009433100187646407,0.0041945208936829065
580,1.428981888015839,0.031690798171185176,0.9950173278207359,-0.11791999465400849,-0.00024248654352653683,-0.013982423036172094
600,1.3909797980127208,-0.0017531109834302944,0.978482524339414,0.007016159226723242,0.02663152001322511,-0.019262002927814253
620,1.3957090736724123,-0.009147984597068275,1.035793937750501,0.1527983464241277,-0.0050852642592291095,0.0005449246996712369
640,1.4506792590645237,0.008421236180541093,1.00371954451695,0.2117906924837358,-0.011677648190312327,-0.0063143025790036314
660,1.3511423987075668,-0.005298214695767188,1.0113701053399617,0.17968232225642738,-0.0012226916738201853,-0.005382355648086684
680,1.2646960677119643,0.02178017121261094,1.0161146410119817,0.05154790721565661,-0.013167380379288416,0.01673946474026393
700,1.1241915827413524,0.006179004607177331,1.0075311529713507,-0.07076376025231965,-0.018859406342949848,0.004705262725367076
720,0.9463181413959474,-0.017467538351997287,1.0116437971105168,-0.13154338684710978,0.0007897992211840456,0.017873409974226647
740,0.8455548712333233,-0.013517874085335555,1.0031449651611692,-0.2024698306826056,0.0012510655383065076,0.0044885429514503776
760,0.7894747899705621,-0.015413338639722317,1.0063558129519308,-0.2061024532709394,-0.001822469965838425,-0.01712308276651686
780,0.5915888845358388,-0.026536568655105536,1.0098777155072245,-0.057179842121877614,0.0019149009720867572,0.010541558608621751
800,0.5417428469379666,-0.022974877824401434,1.0201229806013026,0.01137800499342019,-0.0030288954743899203,-0.002479339680034679
820,0.3612309492112478,-0.041276288988947044,1.016693373990734,0.14800734314874966,-0.013415502141369186,0.003311409408574294
840,0.32158116416636895,0.002121046382211517,0.9908955444888395,0.18296969563649887,-0.008583632557218638,0.005636017242670653
860,0.29821651170071206,0.026430215707126826,1.003973696318743,0.16807802016693268,0.003520096838431357,-0.014275083340263539
880,0.15892335484350698,-0.008792261872164472,1.0064806472866277,0.08361083324706187,-0.003827154292085522,-0.0203872683130446
900,0.1326936061365978,-0.0006096490849481278,0.9823043009943275,-0.06664805578236166,-0.0002994960943672248,0.013004021636514014
920,0.1605285693429717,-0.0047868065198673005,1.0067299577247026,-0.1692027702229582,0.012353259971434539,0.00663620623126632
940,0.019399767362072967,0.006811488292655405,0.9778079853718115,-0.20831994845161314,0.02012006811041337,-0.021694201057521015
960,0.039234500944250524,0.0007283107049096527,1.020156946169706,-0.1391283296751432,-0.013104835982236147,-0.009053051179626024
980,0.038573157657788126,0.00042829031649100377,0.9992620960136246,-0.047207778759951594,-0.011999889623936595,0.0016557860976710245
1000,-0.021856529018160202,-0.011612416738207381,1.0053990341525403,0.10523843921859832,-0.004806166453548521,0.0030495343678477484
1020,0.03918619252313747,0.01017971681040847,1.0324783700182893,0.15416519783550753,-0.00440965960924165,-0.009742073451518935
1040,0.05989239816559859,-0.011031809922697058,1.0271632768154841,0.21369929536394408,0.01608373689686891,0.008163404008342959
1060,-0.07040544708252786,0.007254561510572133,0.9732956974907856,0.1714918198901943,0.002878683287740249,-0.00945681617115757
1080,0.09589485665585862,-0.01024772505929182,1.0041601299241294,0.050928643078359224,-0.00937328924675204,0.0013979005915196554
1100,0.03952624076297408,-0.035439223955792645,0.9975672881355714,-0.0681878832960574,-0.016816556498560977,-0.009756330054825542
1120,0.06933355879584946,0.015439171690786607,0.9664755319316783,-0.1978948832912778,-0.001928910824688111,-0.005099426269247169
1140,-0.01965304266542667,0.031565823372476216,0.9917594885809967,-0.18252282693382213,0.002470778939990808,-0.0008432869842520362
1160,0.027659716194035424,-0.013673253415790697,0.9548023189373285,-0.17535730479849151,0.00018227746274411161,0.007948524490338381
1180,0.0386304082331625,-0.017468801223639804,0.9850691823430456,-0.0767615071820218,-0.006401435837806895,0.01021537588771605
1200,-0.03348970348973432,-0.0033605839871732246,1.0408685913172613,0.09077734171923381,-0.0018069745593367941,-0.008841685231536568
1220,-0.018858686182049302,-0.007839529755623324,1.0073148968905756,0.14326784948842328,-0.006097790030965869,0.00871119811066798
1240,-0.040363171014076264,0.004603080966575964,0.9694769727196144,0.19228143622844118,0.007615388962071184,-0.006321816812789229
1260,0.02566742806147252,-0.020812610585673793,0.9957198799191014,0.1403141261233754,0.003322019932446485,-9.527808775501498e-05
1280,0.09492122025109746,-0.019879295893788222,1.0400656863870765,0.03411172024187895,0.01043640982862107,-0.0038060694885986126
1300,-0.017234402845122274,-0.006516761808905832,0.9940434695844211,-0.07623669390951905,0.01022645503364319,-0.011897317507849928
1320,-0.00881968153486289,-0.041424587746581844,1.013889579086086,-0.20114766211163448,7.625688613074057e-06,0.011941631193951092
1340,0.05686335093973809,-0.005456520737656325,0.9707813017606237,-0.1826752354007367,-0.006267269959941748,-0.007302238026886271
1360,0.009215087884480807,-0.025817088443467553,0.9794343715737055,-0.178184300231646,-0.000986565118123619,-0.01952143616121704
1380,-0.004594884398715822,0.0003211269557006404,0.9941729513198722,-0.02419099596118169,-0.004260920452376691,-0.009879667289885229
1400,-0.0457724553834435,0.018871039891541205,0.9635251360064518,0.07848713293656183,0.01760479490870137,0.0022474611382853737
1420,0.09901349344243145,-0.00039469089385332724,1.0170214189252529,0.21524492755970603,0.010658328115870098,-0.006943837988129337
1440,0.05109627657527876,-0.013004444386494894,0.988413309759636,0.20672288178248363,0.0006597828150529279,-0.001415467189458461
1460,-0.026849989186951848,-0.007093512472511368,1.003063428737907,0.18572315881478152,0.010407387314788543,-0.00569148873106446
1480,0.045010124976353566,-0.026299596619345077,1.004130130939089,0.043788076224595775,0.01426875045993904,0.003088670175728223
1500,-0.011987726731460927,5.583406190108731e-05,0.9789488852742585,-0.10454993427232684,-0.00982998589393199,0.006272308190555931
1520,0.06759330825333942,0.031812765762109,0.965338904782032,-0.18817836637581434,-0.005015811478997132,-0.005975615647663107
1540,0.04631104588027318,-0.01717753782807189,1.0010650693262406,-0.2308517894706076,0.005713844016175223,-0.005652028293277406
1560,-0.012707412989259079,-0.038310990913069394,0.971012316308252,-0.11286346521563242,-0.003003861783280157,0.0035477872524955667
1580,-0.02599764747270092,0.005787935510802943,0.998286745327973,-0.05485581953336127,-0.0073872925407020215,0.007475733837062479
1600,0.088990659311533,0.007734376572645405,1.0065467298475483,0.0722085265269721,0.002646493315660797,0.012602040310084356
1620,0.029569525741855313,-0.005774055213629768,0.9808829924080271,0.1881783043490861,0.009216015113228821,-0.012033154333734973
1640,0.005227855202056903,0.03174318966064173,1.030279960230419,0.17428263080931125,0.007218449365691221,-0.009206119840752506
1660,0.013699622994328689,0.01627360552225444,0.9996147527982581,0.14599241036919564,-0.004936199801116771,0.012703468906069866
1680,-0.02269763916170667,0.002713822612376357,0.9902259769653317,0.00430245635417399,0.007566073222985465,-0.006901262501695413
1700,-0.08053494156837969,0.002492814893240918,1.0101937786055195,-0.10690491618185863,-0.010540627355483941,-0.0050255413270017795
1720,0.03592160783792469,0.009021350647120755,0.9851888947806361,-0.1811177977405103,0.02107731382393862,-0.0038424988987426595
1740,0.04529922159326463,0.02602215331552992,0.9730782340582064,-0.18982279625083653,-0.0029814911576206853,-0.0024374076855200877
1760,0.013643815494586934,-0.0005603093838900627,1.0023538511377008,-0.1411421204153629,-0.007838317831712512,0.008850808394675712
1780,-0.03954137470166446,-0.005483645603519751,1.0132838332394214,-0.042073938826301324,-0.00625861216048821,0.011674771085600468
1800,-0.024641232819110345,0.011946828582900424,1.0025021800242961,0.12644152016599997,0.008364548063723479,0.0007261041017689691
1820,-0.021900295477084157,-0.01293512799446576,1.0021813651825715,0.18091268430428406,0.009930221915780628,-0.01511338120122505
1840,-0.040730626160657035,-0.02346973499334537,0.9896348971579212,0.18355205389515328,0.010709924862729104,-0.004327982542628245
1860,0.042354294439689466,0.01494572848398358,1.0197244766311995,0.1372767936589404,-0.004156792437033099,-0.004026389980100263
1880,0.033042919459589044,-0.023537666206581896,0.9881493460817733,0.010729729437306932,-0.023411830830700208,-0.0013996913648963388
1900,-0.05645800612783306,-0.022344306490806428,0.958438510935542,-0.06926800987061302,-0.015457825402622334,-0.010255213236984756
1920,0.02008941535156405,-0.017027240703838067,0.9995298609590789,-0.1735667846001098,0.00834257673243104,0.01389498111061966
1940,-0.04607020016583467,0.008625546333628472,0.9992256792484886,-0.1558974920174203,-0.014397948937113932,-0.00033808718286603264
1960,0.019255931282723276,-0.02475709261966698,1.0341562203518544,-0.136783546986709,-0.004721373094577479,0.012046581825785854
1980,-0.038631488938254716,-0.006581525937700593,0.992509063531825,-0.004092424346525397,0.008509159377899563,0.005277578688243391
