timestamp,accX,accY,accZ,gyrX,gyrY,gyrZ
0,-0.037031225789651005,0.01425420183729796,1.0244695002130173,0.01687846402972989,-0.016498619876621507,0.00487064128689246
20,0.12038539629914678,-0.0009167383044574357,1.012432871141961,0.12231320077292314,0.008579849408072212,0.004777613990934061
40,-0.011865782604603891,-0.019857276117139833,0.9544366023859485,0.21048495357939379,0.017359647710640122,0.007973426592869082
60,-0.04082978671659149,-0.021048431861749865,1.0199127853381362,0.1825007620808607,0.018479149302918635,-0.002602139602293666
80,0.04556562761646233,-0.02593494567366553,1.0010107309074703,0.06222125266546652,0.00046592306263936064,-0.004301931980187369
100,-0.034315664067947976,-0.004299330773810096,1.0227680204443743,-0.05981240084577766,0.0011913348925411689,0.0007416205214551454
120,0.017253843246104288,0.026363340892007578,1.0023013665937597,-0.10019326795352626,-0.008444853856327235,-0.0034007059849855328
140,-0.06589815115785347,-0.0009426784767383065,0.976518032413992,-0.17710758714790656,-0.0023040179843219232,0.015040343661732052
160,-0.014831465443122374,-0.018293905959799087,0.9860438855057433,-0.18081843430235156,-0.002210807307048638,0.006398028984227824
180,0.09918981227545251,-0.011291685796792215,1.0329873833786005,-0.1329684241738367,-0.0007461550892506037,-0.0043776897997206575
200,0.043002621345393156,-0.0007754699538762688,1.0000015000665967,0.03513148086062787,0.0016864883074166179,0.01646394328273853
220,-0.05646456241271788,0.004801104658073969,0.9915511588255734,0.1411608032150536,0.0065467714633691285,0.003676778717604068
240,0.006211154569326062,-0.0196271724217707,0.9951633148936291,0.2065306157424451,-0.004619070720497861,-0.00822152116548243
260,0.0841761101003048,0.010552773824369359,0.9936190478708824,0.14156649544303102,0.00814103964958216,0.019794820731264432
280,0.06422452190122524,-0.018329064640327648,0.9874388536512857,0.07936763681278705,-0.004993932805486457,-0.0031181179119067043
300,0.1662354889524769,-0.009311171733280025,0.9946056743808775,-0.04177817047580491,0.00946962764334565,-0.004885371047299975
320,0.16423436820366105,0.0001682078927667833,0.9795659365988696,-0.13275207736602637,-0.006111389172806311,-0.006087615592672347
340,0.22903671524276087,-0.033136514164995405,1.0003757109942846,-0.17904695121373226,-0.02403634375880857,0.011345932570985224
360,0.47700789643214936,0.028631959805771937,0.990292695632949,-0.20479926047989525,0.002120983226692909,-0.0024682063598661127
380,0.4418637067257138,0.009579509435915286,1.0076982593587016,-0.10840201382918647,0.00018268614399515629,-0.015601195138034159
400,0.6142024996520162,-0.009870241686844009,1.0174311710128168,0.03938349997450452,0.013992670517059758,0.006703448952579199
420,0.6750921725337555,0.007973841440493673,1.0171271963563233,0.11803183428251528,-0.01003514292170819,2.925245925086562e-05
440,0.8534859624864849,-0.006652360910444524,1.0231653929071498,0.18499019161913904,0.00394028008631688,0.00025867803196505244
460,0.9165943750574637,0.011349343613021786,1.0087565159270158,0.1963513834623291,0.01679678277555388,-0.008602188419335395
480,1.0225626686438978,0.005721364387964936,0.9703605529468018,0.07761018643856112,-0.006635768200023116,0.011787964864002234
500,1.1974607215876056,0.0011772951090179248,0.9821988511856818,-0.025844592473208958,-0.002723730665532991,0.0024975126962323933
520,1.3701609783951407,0.015308440420410905,1.0148571098306551,-0.1316508287725643,0.00788017286558841,0.0033467738668739666
540,1.4172466068368301,0.006541166279043758,0.9615520379557931,-0.20373489550842608,-0.0140263060183398,0.001370484619590739
560,1.4953480753378618,-0.0058732515496825455,1.0087136764813907,-0.12867867697117252,-0.010030021057817964,-0.002963502323113338
580,1.4833532879258176,-0.0034732035612277923,0.967340520313946,-0.10010767780515434,0.0024698551777283554,-0.010205924665525688
600,1.488104934390344,0.05856995867433321,1.008854626439238,0.04686816041151085,-0.008392160421861937,-0.010932163506720181
620,1.5504075402004638,-0.025849216129140432,1.0109224766828815,0.149990499117614,0.0022781605988728545,-0.002163828190557716
640,1.4434103321842897,0.011548688769505319,1.0193377880764192,0.22005091915433148,0.004457651293670696,-0.006467022564980008
660,1.2616510627823079,0.007028322555470287,0.9945546014715587,0.15391376012378338,-0.015795420805343182,-0.01462526121716727
680,1.3168350390446304,0.022935739973134212,0.9958844906187452,0.07661372718416322,0.012993997372790143,0.009015898326531414
700,1.0419789394339931,0.02780692142469296,1.024588276825217,-0.05754836395205009,-0.003982479158236423,0.01863492412871931
720,0.9503191495116069,-0.024379141192273687,0.992084109898871,-0.15314026610852127,-0.02063593201085735,0.0048907867141426906
740,0.8685174215092114,0.01141610019259969,0.9637818808969559,-0.21153869578290158,-0.002388681276820966,-0.0075017556073898985
760,0.6868137342275649,-0.016707015565132693,0.9855011582836596,-0.14537144772910324,-0.013420711730943342,-0.0063230040905639185
780,0.6439782963629586,-0.01414681114090132,0.9719767598615636,-0.07767981969634574,0.002147356291557576,-0.01087721581733724
800,0.5354556899391884,-0.007418687600343541,1.0161643945656325,0.04966888475246978,-0.010781133416383775,0.004416964949925854
820,0.3662769640663454,0.016039098555752807,0.9811633812596293,0.1616592819836589,-0.003275671235031276,0.008471223225142172
840,0.27009956188582906,0.009515095264021223,1.014648087296248,0.23376873308063406,0.004614539865380566,-0.02215452338665888
860,0.2757662715780596,-0.006980877903652025,0.964686475181624,0.16239971868497682,-0.0075644527375750715,0.010057150732192393
880,0.15095873536207585,-0.019192127147300328,0.9699963465960728,0.09126171069417213,0.0062286228886901775,-0.01781427953250155
900,0.16477345444744584,-0.011536033606262153,1.0177886234209834,-0.02943858728561981,0.0114187604793974,-0.002766728660172044
920,0.11515896276871303,-0.013248852833752205,0.9861613748659236,-0.18488998423282,-0.008919011513818338,0.012490054766595917
940,0.1170145452222495,0.04116370305612404,0.9689384511117094,-0.21994012253493223,-0.0041008954043473475,-0.0037470019527514786
960,0.03024151610329162,0.04707547835853927,0.9661349014402755,-0.15334681689036744,-0.0060183266330071615,0.000942061323105912
980,0.009237497502731638,0.018204362485075003,1.0024442036945145,-0.05031688510255442,0.003236778529643035,0.008767154658776723
1000,0.00031160508823089433,-0.005083296923639016,1.0304135997367467,0.08217911407587877,0.009825867938222141,-0.01590408019098585
1020,0.03055487955037366,0.0008697254292231245,1.0000736008957525,0.1468049905526987,-0.0016976398214772065,0.002302407869651637
1040,-0.017384719918783882,-0.017030552806713062,1.0197439419076633,0.190272795165766,0.0005119755200020619,-0.00726814364522431
1060,0.018502788818167026,-0.022382774164345674,0.9967959437657109,0.18818378780128264,-0.005199994407578632,-0.0027858787963011065
1080,0.04811173610142956,0.003140677592016514,1.0085308659190229,0.03041478145228166,0.0032764417697002664,0.003688253849481689
1100,-0.030935933304721733,0.0561132286603504,1.0351414904703289,-0.012105249050862764,-0.011957593829469416,-0.01578569300871303
1120,0.05213938907726322,0.0068744319186108075,0.9691352869219648,-0.15047673099396877,0.005419937170233086,0.01246146416501286
1140,0.12334259512915931,0.029635664710525273,1.0073707514623746,-0.21415338156174016,0.002872427842255518,0.0025604427695894985
1160,0.05533810197349612,0.026296866294817343,0.9810352317640109,-0.17733893378823362,-0.004584847668916599,0.007842357696272515
1180,0.04389270570641673,0.007435516359068366,1.0128775743785947,-0.055815649531079835,-0.0007424104275311944,0.013517583865424046
1200,0.019867807779967196,-0.01958170058767274,0.9822526969110946,0.03818388154956702,-0.00034505262790144675,0.013021341432624432
1220,-0.01858862760666207,0.024083880176111547,1.0041653904648868,0.17299673082980396,0.01253047529265461,-0.00490334158347896
1240,0.023340878242740535,-0.030875042061245868,0.9901862293973741,0.18443107400600475,0.009943637559579492,-0.01170201785585204
1260,0.06561841711639688,-0.0285935660627393,0.963429655534248,0.1217975274069467,-0.009777421339736641,0.005128934935495285
1280,-0.025225553943755835,0.0030696912875731687,1.028550828005324,0.019581360583647914,-0.01372141989928706,-0.0031493347968541575
1300,-0.09148535260092798,0.016047421973520687,1.0125760605202452,-0.08536099096910248,0.0014691882390632208,-0.006122006725027568
1320,-0.020154322361470817,-0.010926067458835132,1.0268133405669027,-0.18518991871215312,-0.012643431528132534,-0.005091884651847454
1340,0.05097671151458902,-0.02845449680342192,0.9764289586371233,-0.1960936707048216,-0.007542322417969907,0.009775355438125029
1360,0.02753650103866942,0.009990778665553734,0.9869451274484285,-0.11547945045392455,-0.0009367328994142747,-0.004960178038646285
1380,0.02933491027151486,-0.020538658891774447,1.0000106049028132,-0.03788857988073117,-0.010844933122252301,0.0037292564925025195
1400,-0.031678072181974055,0.003808641002465301,1.0299516692170894,0.06747899722624146,-0.0070531220965463805,0.01062024880875464
1420,-0.05632645143369589,0.005858263626685104,1.006222958625925,0.191023471258882,0.0065347919963091115,-0.004023634717218104
1440,-0.021038928798173324,-0.007378039114048691,1.006380855607185,0.21940650522407937,0.02474350535577305,0.009536263185666612
1460,-0.016335000334703965,-0.0029005073481526734,0.9855097564573675,0.1460021534192821,-0.0028900966272589145,0.0068701953950669635
1480,-0.006259406331479671,0.007344947917534257,0.998777454388248,0.044775679155364075,0.003093147425544264,0.0027758005422328837
1500,0.05386827584473839,-0.0358858130180314,0.9775009547874756,-0.10617478201290179,-0.0022268875753801163,-0.0031223761043351938
1520,0.03954640642899023,0.03071496945431741,0.996748820155645,-0.21074665475960278,-0.009244289650048008,0.012608422985297046
1540,0.05778572341861323,0.0062249444396399465,0.9950690770686691,-0.15928562710154964,-0.005585787834706217,-0.02011583632632206
1560,-0.06880757914173094,-0.018325243818280615,0.9900705085012255,-0.17686990321441792,0.014413681981988898,-0.0012504623852148933
1580,0.012466370553435966,0.01788443984842129,0.9657374493431112,-0.021551979573997133,-0.008526057175141502,-0.006028902462445683
1600,0.08590007566987398,0.021542695183434844,1.004301381852346,0.08197762460158492,-0.004668366518731552,-0.00969468323521522
1620,-0.1260027129266236,0.01602035356256076,0.9836534621065519,0.19275453733799536,0.004598342236894717,-0.005643700065287087
1640,-0.0602963534531431,-0.030603740915285664,0.9759509323013428,0.20256292577189242,0.011443966166405964,0.0028414063408699988
1660,-0.026860485285227463,0.012451878731521713,0.9828637384551285,0.16610147849406706,0.0016354204722446068,0.0073237485029745125
1680,0.008968251974324992,0.00626382390615151,1.0037965081312286,-0.0001807086055479537,0.01661248469508207,0.00962064663296619
1700,-0.012195403646120928,0.0251821867802609,0.9970234647222335,-0.09009643271354237,-0.006363876088157103,0.009738711230185165
1720,-0.11229142781944762,0.003768944603640744,0.9773061865474485,-0.2142360681901839,-0.0004022879142155467,-0.0027975802469038286
1740,0.030010124503482255,-0.0011443613936369431,0.9676126596836184,-0.18432216025235396,0.007790970521428436,0.0006068610899199386
1760,0.029298939850500746,0.003942474290233135,1.0350684051572998,-0.1347040730165319,-0.005693091972706659,0.0087277772795369
1780,0.005374201533196221,0.0009721012726561564,1.0219985826178526,-0.001286573539124031,-0.0005355637726753635,0.01175705582338928
1800,-0.08439183913493664,-0.024465382453496786,1.026491042604001,0.09270863567597588,0.007577543865943911,0.007236230510885649
1820,-0.028544080894147745,0.025407247459761088,1.0153491146801301,0.20430526017679496,0.015436043694606123,-0.0014164252568109163
1840,-0.00285388931020548,-0.01646231499335303,0.9610792057040929,0.15685644445889682,0.011171177730678637,-0.01457546263760817
1860,-0.04043852281606297,0.010782130406150597,1.0057278573271287,0.1353373130722676,0.012296881392456922,-0.009920861313758678
1880,-0.002004337665804221,0.00489509664553715,0.989571056795072,0.0168952363660755,-0.0035514340106432203,-0.022358193893848643
1900,0.08184893035740104,-0.05155133385950286,1.0078693587855607,-0.10999901843099197,-0.004537215446320669,0.01120608429896873
1920,-0.004117904742464563,-0.020851353221960398,1.002984108580369,-0.22004699007356623,0.004736836654076359,0.017176176258746397
1940,0.0720963907021017,-0.012478901062830483,0.9628828829050934,-0.1853326570371115,0.006199642320127284,0.01158186880526174
1960,0.08027476827621678,-0.00451170366755026,1.0119986919198554,-0.11315130883111578,-0.014833352615722606,-0.006603384511327588
1980,0.006801770525646717,-0.019568047340164884,0.9988432354608291,-0.02389802469557389,0.0016645152856381235,0.017642332170148906
