timestamp,accX,accY,accZ,gyrX,gyrY,gyrZ
0,0.02439318093339497,0.002933027176419248,1.0088793993371803,-0.04201053881683394,-0.00030119349307903843,-0.006442369699764948
20,-0.09841320637886378,0.0018958779806022362,1.0184077919179109,0.13097168314125177,0.011273283603268756,0.007417503663561478
40,0.1024358598289312,0.02789740761125148,0.9974596472308648,0.20164212104223186,-0.0043850339204495265,-0.004479728635784975
60,0.021197574919083268,-0.00036258627176663066,1.0167161129744708,0.18547205722434457,-0.001953142244113846,-0.003408164109536196
80,0.000861400955164798,-0.006496675768049471,1.0151669611160485,0.12774059992832368,0.0011085816409877787,-0.0064654259003687825
100,-0.006375509217700919,-0.014474216322043607,0.9919092876524082,0.01802430983517725,0.0020531933816392064,0.0003139715863434791
120,0.08475281413306415,-0.017275235344917088,1.0030147375521548,-0.11509833029783252,0.008133378865269117,-0.005475318493035943
140,-0.006492810072628515,0.015268236785828136,1.007614834764499,-0.19557818328988885,0.011781400544012246,0.0025063000941851882
160,0.02193948128813407,-0.012305106273631655,0.9930838424981034,-0.18018906136245189,0.0020309281457948653,0.0037445243597636546
180,-0.07811928613075102,-0.0026059240653262014,1.0284075836047153,-0.08178293033278088,0.000468590201628908,-0.005084832516997074
200,-0.03838198770834299,-0.006323747468571323,1.0205023076022788,-0.002728119945853409,-0.0031045023138229757,0.008078796072936063
220,-0.0512045424251837,-0.0025207761625159505,1.0191131423034427,0.1205236393496391,-0.014889772610085773,0.011535828917741794
240,0.06531907695038497,-0.024419998019920525,0.9937215781525576,0.20707904467874055,-0.008441497565802508,-0.005512338503545908
260,0.009504168906713267,0.004692081891607464,1.0379394848885422,0.1781943448473457,0.01250175361038603,-0.0027667558526141807
280,-0.13634818185408817,0.0007344601202695999,1.0126473921906833,0.09000130411845368,0.0009466688052290298,0.010570469465204306
300,-0.106191492204493,-0.03758199313124816,1.027807718173749,-0.01952010158746558,-0.005476109576328742,-0.009814635267660337
320,-0.22631845379170543,-0.01564900376130554,1.004910240453439,-0.14205997807307452,-0.008180442067279955,-0.014881936136077687
340,-0.23717518830763645,0.01538863243877152,1.0002634392543848,-0.18133804546923973,0.009104880736623376,-0.0008112575512967335
360,-0.43051529024426927,0.01503121651358916,1.0084377275544258,-0.19970002611699392,0.0064428543489372225,0.006406705258911424
380,-0.3805120370458685,-0.02815863486609012,0.9874464929537733,-0.11118909209013907,-0.009578138023795731,0.00654247889437077
400,-0.5966534200205074,0.003846284412763473,1.0037164732490391,0.0063796166973381745,0.02688328558991423,-0.005679722073881693
420,-0.6926607627784777,0.05083138918744065,1.0089947051766246,0.12540709526370086,0.004883447597821697,0.005326281531558768
440,-0.768151164636383,-0.012655907449369886,0.9902805021595383,0.2180732246767025,0.017181173104469327,-0.013099188138999485
460,-0.9716622960975676,-0.005572227709360706,0.9784951220040203,0.2049350936254367,0.013771560897036484,0.0054298378832099824
480,-1.100988143908137,-0.005305483358867789,0.9829988016306768,0.07394572005110006,-0.012056701399700052,-0.008960903769358177
500,-1.195229401596712,-0.01479518366622817,1.009316639610555,-0.024597833374752985,0.007551738101699881,0.002240710063324222
520,-1.2743523192410966,0.014566202786333948,0.99247108339648,-0.12383786770162658,0.008174115491476874,0.008629857271927973
540,-1.4173244573306294,-0.00802412923110925,1.0097859605432644,-0.19523699427799757,-0.005018683418961746,0.008213943596148946
560,-1.459621617419413,0.01835039229894449,0.9593527090078691,-0.1942068870777624,-0.01378471856315598,-0.004334354496859648
580,-1.4892963248310802,0.019697952086911847,0.9969904028185473,-0.0922905479437799,-0.010236528096048485,-0.011309840591902754
600,-1.4617438608611886,0.008016058416875015,1.0109837160817907,0.06115575351503787,0.01655181468982487,0.026324800389843316
620,-1.43609088298112,0.018482571631997843,0.9779150502056053,0.1456266255962999,0.0024559775580997563,-0.006553442218238103
640,-1.437135730248177,-0.004677539552064193,0.9910798439993214,0.22079130771298838,-0.005018267149454201,0.014140081676833168
660,-1.314620617959236,0.01352214121887156,0.9756774042171621,0.164373039883499,-0.01583186415088095,0.01686621440290738
680,-1.2735996279158275,0.006160524886697492,0.994148674311178,0.08373997896758997,0.019394651201703198,0.010065922152974326
700,-1.047661984823576,-0.029411105542615716,0.9814409181644178,-0.05245682140593716,-0.001694006436152003,0.009302088581300242
720,-1.009743887490681,-0.011389898007754053,1.0126144675299942,-0.13320651735550557,-0.0006373581857792535,-0.003991859530339513
740,-0.7361305320818453,-0.010453585132586905,0.9710330111758232,-0.21451982752322804,0.011135272079313259,0.002307412224208842
760,-0.7159066849377135,0.0053284990404260735,0.9728510383892969,-0.20019376822245274,-0.03603870551944019,-0.018723002623126192
780,-0.6396362711730315,0.0018898653923495289,0.9600020872884815,-0.06698681524997702,-0.01182389700630614,-0.003724457754771505
800,-0.44892348877911753,0.017177540326081438,1.018023781935365,0.05564377278124097,-0.010544116169485833,0.00986424995941565
820,-0.4160429850514472,-0.015915337434462457,0.9579287932254877,0.15871613836850562,-0.0037414824786816602,0.012186084644093372
840,-0.32974100019438035,0.0024156840318934596,1.0087140273724904,0.15090209980246594,0.00017745368802025573,0.012038104806189234
860,-0.17839471494576845,0.023485756249725067,0.9417594210107625,0.1720575042380963,0.01578374178038116,0.003091459816122394
880,-0.2410990321355742,0.022382381138352704,1.0062975985439262,0.08896365647087633,-0.0014284026857791666,-0.01633602497078295
900,-0.11485162176948424,-0.008472860655553322,1.0323326630886847,-0.015477917452362835,-0.005488457122518892,-0.009508023328560447
920,-0.10165928058332077,0.0009536326265682481,1.0029351926730976,-0.14152795968426177,-0.009318229043284006,-0.009133935925160213
940,-0.010404551750325765,-0.006938470630983819,0.9810133574115377,-0.21351387713381298,-0.001724190198295435,-0.004188437770910551
960,0.017427183005479234,0.015528506133491708,0.9973671865301327,-0.17029815872215331,-0.015277187483159427,0.0012654425490829751
980,-0.014260757160285468,-0.018164400297698714,0.9876276320757623,-0.04458039238926076,0.0022632833053934935,0.0081862683629202
1000,-0.04564724069344801,-0.005043475504831307,1.0014021888883335,0.05788572441375883,0.00470566603455815,-0.011986007614786617
1020,-0.08196393224582918,0.029940534032391268,1.0134132868026453,0.20831526600627273,0.0011232783136166532,-0.000899117412621471
1040,-0.05452790047898444,-0.044107895622400105,1.011470143902269,0.18862855353866462,0.0028596858315448896,0.02449151496758609
1060,-0.028293172112186973,-0.021556774118135832,1.0230627368715395,0.1627292632486163,0.013342836946103918,-0.00043626843793846595
1080,-0.032101365928811285,0.04665123463680164,1.0062283817060556,0.04357465795314504,-0.009291929923904985,-0.0030942069048838965
1100,0.054689987112804775,-0.005837336620166992,1.002868262406514,-0.02666800186901884,-0.006494306352596365,-0.0115978285620209
1120,-0.07545002111429058,0.0077010147448943805,1.0218724235944356,-0.1715199964974547,0.005270094575330202,-0.00231041874828675
1140,0.06654822933445094,-0.013416418410957094,0.9993789370435348,-0.18468104724405615,0.0002344929694223553,-0.017293749532805342
1160,0.01598819046906343,-0.009522417290950191,1.0147472022165365,-0.15869609945416502,0.0051041132779144375,0.016851850206135815
1180,-0.11924585125869785,0.018474166520941672,1.0103563515944596,-0.0787940210618262,-0.0018402586584776613,-0.01116791176823676
1200,-0.06192431816343879,0.060533365620690345,0.9928011494352048,0.08986434532308891,-0.0003878992051274186,0.004323417490885408
1220,-0.027962185869698297,-0.024522497046314623,1.0102893411104201,0.17204278116306726,0.004548479657112677,-0.010271923261069077
1240,0.06627858534518964,-0.030433126116980253,1.0092260745051822,0.2152593527680228,0.016193573718342433,0.001478876674486528
1260,-0.029182179831603677,-0.01073723709171422,0.9962124906973937,0.1435081766976092,0.004485318921599444,-0.0034731947251550512
1280,0.015026833338308126,0.01779502411249439,0.999146795682426,0.03883603614649793,-0.002991813139294991,0.0026077430358247278
1300,-0.062176998472668527,0.03161799891468059,1.0076509368161055,-0.06145534157446585,0.003638724815524614,-0.009477560959866129
1320,-0.0005541537518869286,0.04265905402166353,0.9948687967055324,-0.18462230102760963,-0.004751078918402819,9.890703144968326e-05
1340,-0.012036762810967855,0.009256883523888851,0.9866609814337985,-0.2091713308810874,-0.013596221152405065,0.0016235105653615784
1360,-0.009935995685786111,0.0115749647362613,0.9778411665637471,-0.14120588803307402,-0.0036785530596767113,0.0075943238902549705
1380,0.08180483367837642,-0.008399020635424003,1.0181226395472864,-0.04423025134632069,-0.0016474700692689962,-0.006267777303753265
1400,0.06026540345079869,-0.004598360542909909,0.9866590832739415,0.09797402834108888,0.007481389031996048,-0.009571590585138456
1420,-0.02085418417904353,0.0038629759380985097,0.9984288556937826,0.1537576785973988,-0.007711960133788304,-0.021640588345222273
1440,0.0212400667236553,-0.011339181263716231,0.9873094112308113,0.19300446931192322,-0.014486314583530857,-0.0074554990871144025
1460,-0.026522989700105852,0.013530574479961383,1.0090864420036159,0.11696185068038287,0.0023067479491969698,-0.003500563863437056
1480,0.015143027461417175,-0.01918191155624153,0.9807158200410544,0.0007311395852787131,-0.009004168983335862,-0.013753398081045682
1500,0.08222599596659126,-0.01564891870759146,1.0091603186545595,-0.10029450030806074,0.0008408920389651336,0.00862474373902969
1520,-0.0054686847512685705,-0.006029228283478325,1.009954299145452,-0.16431679016184217,0.00043242372307321494,0.0023242886807111783
1540,0.04559766393467533,0.0002118844629482705,1.0011317974470273,-0.21463558585968295,-0.015903811142069093,-0.011866371323084003
1560,-0.010577642060126255,0.0021707136139562954,0.975190122301,-0.1015686065431996,-0.013098587324481926,2.5725931531458234e-05
1580,0.045847573771266734,-0.010036495531205798,0.9964621149604734,-0.034277624738359894,0.0006689516219230337,0.0018618533066639504
1600,-0.02872200257510904,-0.011268271125308453,1.0208271991904174,0.11491616233799228,0.006171984677168327,0.013197369465177598
1620,-0.061935522454372116,-0.019889101378220975,1.0023745933977735,0.16134479600514162,-0.01762688106612502,-0.017239697092959975
1640,0.01857725447737287,-0.011688680529067904,1.0027615200647966,0.17606932284923782,-6.689863646640749e-05,0.003819752304703805
1660,0.01978952129684433,0.041113396214820734,0.9976313255215533,0.12273065244598504,0.010558435093427188,0.00661698820003436
1680,-0.002263844933649063,-0.0064904591661448085,0.9839049622071481,0.015382700961959173,0.003018408410851278,-0.00605069189069756
1700,0.014680872528768537,0.02522308237106054,0.9844348840492257,-0.11738767641698947,0.005489866361035507,0.006561244231744033
1720,0.016912527320543495,0.026227470766711173,0.9858818379680871,-0.21025720039489637,-0.0015043407307781306,0.002749519641577355
1740,0.02931213147650694,0.012663869859379862,1.0275370980581156,-0.17458643653237604,-0.004682824597715115,-0.008650419677830111
1760,-0.09105558009994888,-0.005098673086011441,1.0049105927677826,-0.0929038094280378,0.015865816414690193,-0.0038843112577923024
1780,-0.09242402227037752,0.023468718460107844,0.9949685257492857,-0.008872343952892818,-0.0036807025072567974,0.00589864628689716
1800,-0.007154815562124722,0.00383546931382298,0.9970952277456545,0.13869431895178658,0.013430113502346401,-0.0018009526232797626
1820,0.00032117326659330907,-0.00396728524600319,0.9858438850845829,0.17660432124024195,-0.009963610605726427,0.010631721440523805
1840,0.01235331885378619,0.009958287661857294,1.0203686252854756,0.16035457988595042,-0.012443912803294838,-0.007162434030503232
1860,-0.014847947309531033,0.02464522635763069,1.0186392546773597,0.12076421248447136,-0.0007539844635399982,-0.005711655727411502
1880,0.027498505896024372,-0.04158795154359346,0.9972664393748235,-0.029660910542028525,0.009448964827484809,0.01386111460941304
1900,-0.02002797376129165,0.011847938315937256,0.9900277842244377,-0.11366949963368572,-0.006047635287916712,-0.0006881736904912473
1920,0.06623999418762104,0.0010694122322466915,1.005209678288551,-0.19434013163228456,-0.01156248101095384,-0.0008928934877517164
1940,-0.04247514332461058,-0.011512626875589179,0.965925490152739,-0.224685995632827,-0.0037181284822881424,-0.0006670414187006129
1960,-0.021962303160990904,0.0006475925091686897,1.0164822908732598,-0.07108355039628325,-0.002656423591166047,-0.0018590285351568784
1980,0.07143414194661143,0.006083695616258445,1.0577260332730634,-0.003842509078887678,0.01624203187960703,0.010380620721581304
