timestamp,accX,accY,accZ,gyrX,gyrY,gyrZ
0,-0.04504135147419242,0.019066965271935795,0.9931660015462389,-0.008163190347682899,0.005454523902923514,0.007982005184330647
20,0.005051952816691824,-0.008648861862589789,1.0060387105028141,0.09756236175950486,-0.0008175843579506048,-0.005898501785847273
40,-0.0006258010593352107,-0.009400171491677803,0.9775042196212371,0.20085298760636722,0.01973391584394034,0.00494455300891284
60,0.00908535902055771,-0.007065373563272923,1.0262141305420533,0.19877132516834017,0.007214017635334368,0.00826896949066367
80,-0.055605374430439856,-0.02435760297795846,0.9906101358043425,0.12282408000005708,0.000974303513676645,0.010004052007721417
100,-0.02080532254735428,-0.007324966095711114,0.9943627066896964,-0.0316668250479669,-0.0047585219019346345,0.006682409826909945
120,-0.01054473837207481,-0.06803143972062238,0.9953457377603914,-0.1479520272474713,0.007571097854160268,-0.008445654270708518
140,0.09234262988830501,0.010750456700517233,0.9842761216356377,-0.19073770495170092,-0.011938858262031822,0.013312857029993215
160,-0.05382477837018928,0.011860684042172085,0.9785031241286366,-0.2053701495113839,0.0140769774491503,-0.007582352916883932
180,-0.13186392245713643,0.017594371624057557,1.0130641583145454,-0.11089646670207572,0.010311791939910287,-0.010493744168149393
200,-0.01876561269865601,-0.015207202622331004,1.0188933339085078,0.03560206878036106,0.007129145835866126,0.0015850604885435749
220,-0.029430033178488017,-0.021579540079770296,1.0094345121300707,0.11932091564190316,0.010020037124893497,0.0013219463522357807
240,-0.026680431332226154,-0.000891184346055261,0.9772842453918796,0.18220251336703902,0.005227664912050939,0.00595183817641134
260,-0.19021499168964945,-0.06190356105022451,1.003813390070827,0.16675896551351793,0.0019051649388979234,-0.026276477134863818
280,-0.21362181817541043,-0.021165672740789586,1.0093650825658267,0.1285561243397643,0.0014428284883873568,-0.00682585369676737
300,-0.13217452258372525,0.014068128446425545,0.9790800719815871,-0.01573763163646729,-0.0025020437911103008,-0.006768142024836965
320,-0.20603595898496951,-0.03574420918265942,1.0018172727356418,-0.1334716687321077,0.0156082691189896,0.006236379325791137
340,-0.3504561959221557,-0.01833560930069465,0.9867402031208345,-0.19614058811651747,-0.0076817757528502,0.0034525466380797847
360,-0.3290176401336324,-0.010333879625804478,1.0114545298115825,-0.17538401533487505,-0.008396104254728658,0.002890989764258814
380,-0.5385857851313324,-0.029833455785280783,0.9874586005596698,-0.07713793236155894,-0.012880424583434212,0.017617899913780457
400,-0.5177482722552702,0.014037764482751043,0.9885782278957704,0.02050159194053736,0.003962012218700729,0.005166249124272289
420,-0.6081547105854589,-0.037171940670548874,0.9985814660539863,0.16119159934333044,0.004997310883980148,0.01547445722996677
440,-0.8111530309076703,-0.029467358025743136,0.9946302816224473,0.22491367865570577,0.004479924575956492,0.0025954822341746914
460,-0.96033895037071,-0.04280348632404635,1.0581194394255868,0.195158544768754,-0.005241765809788748,-0.004834158357108664
480,-1.0666835530855716,-0.030297271631503198,1.0130500578470214,0.10539799879666308,-0.0057193135253706525,-0.0009529098967894337
500,-1.1697181535595986,0.012470573654621491,0.9886563015929036,-0.0476122437590771,0.0020047686760000898,0.01042322934225172
520,-1.2274910922606754,-1.704422513921863e-05,1.0009060914364232,-0.12461369344265805,-0.010020601849300606,-0.010868938721504278
540,-1.4269880693964354,-0.029929137076720055,0.9874083127547136,-0.1969433499790504,0.0002140324312612796,-0.008358001800528538
560,-1.4887298767154138,-0.05326946999670851,1.011101967125495,-0.16896252231923164,0.011307747639288926,0.013495741079493053
580,-1.423830958319565,-0.006072564110883274,1.0130779739564284,-0.09720240327638333,-0.006346823204306803,-0.001060441862472683
600,-1.600563081841946,-0.006979871025078557,0.9684463245723123,0.04808246735205794,0.000726284992240076,0.0007691503117690587
620,-1.4882530129829856,0.024915276471041678,1.0121262832625573,0.1506717343033976,-0.005769043965004656,0.010572201822470853
640,-1.4569715224302373,0.0402980738231295,0.9999470840933953,0.1750572064910359,0.004575808661455067,-0.0016349004251054217
660,-1.4326930453595357,-0.01717249948976881,1.0028872822727586,0.22136691289076693,0.014995649327935337,0.0016707536162228265
680,-1.228751948163424,-0.045095287736332125,1.0293631322914956,0.06952132148648087,0.016042989637610233,0.011282278994136828
700,-1.062539136761482,0.015682043428365277,1.0307167105940327,-0.04125605669413292,0.011741512403684509,-0.00327539038208783
720,-1.0545379904171703,-0.0003552400092306455,1.0307089258614177,-0.1722001614346191,0.0008100614003098331,0.015637018072358077
740,-0.8452735497197907,0.01612966689173435,1.0499272830363098,-0.1626239497749477,-0.010469737800743948,0.014679912688514747
760,-0.7005776163582876,-0.004897910560666556,0.9885912396346037,-0.1872990532818089,0.0013537283261820954,0.0003647560968176908
780,-0.650035722734331,-0.0034654503644243385,0.9968827376272649,-0.07277219933802753,-0.007432136238242751,-0.004452635189287756
800,-0.4821469583335206,0.0034719871297647364,1.0038581499914763,-0.0004806483541415288,0.007634824014317472,0.01009908718503501
820,-0.35281698956715,0.005869812062501556,0.9896150283541253,0.14735481053039545,-0.017324107339907302,-0.005742835530249574
840,-0.3472673750064369,-0.018026104075726714,0.9967428446900851,0.18119671605930668,0.009863733815185719,0.004497023801041246
860,-0.24538849841557897,0.007483069655087461,1.0092925430152184,0.16905270874276448,-0.001901718213713619,-0.0007077256466813329
880,-0.11323032911379159,-0.012049809218257261,1.0122338478220767,0.060335153843719784,0.007270544499195638,-0.012558737948482487
900,-0.23239658353300496,-0.003268804319554928,1.0319855408865117,-0.047379830028030936,-0.0024777199385117342,-0.00874202132630923
920,-0.15225683784363164,-0.005773781414626755,0.9726024805063024,-0.17338272746497016,0.0011996331135976904,-0.020421880102941915
940,-0.11885923582538807,0.01928851756555505,1.0074363415418892,-0.23964425413050122,-0.0025056800738797675,0.007369410094150274
960,-0.01019401633544316,0.01889346397286903,1.0116758467584828,-0.19390110036990205,0.0081744711425758,0.002436258186893993
980,0.004370403201543201,0.004044378146367133,0.9979804232273592,-0.08065002760318807,0.00035504139034448905,0.008892179543320153
1000,0.00711102095822503,0.004965635022310364,1.001406371621313,0.05822150473149465,-0.01740578033841959,0.010014338902283681
1020,-0.0009492499250938514,0.01621328281277106,0.9756566466048334,0.18058091645566224,0.0013483575130967382,0.016490309889151428
1040,0.05335279330255227,0.01801939510141594,0.9728093446463358,0.17325844891904374,0.008148201518140344,-0.021021726001291614
1060,0.049057998876600666,0.0037378319728377176,1.0236430961284761,0.15265306529438985,0.010504381521352303,0.00043872031074334216
1080,0.005957577400879002,-0.046646996677722034,0.9774646867726208,0.08733259204278135,-0.015868615072525887,0.0052283667209575896
1100,-0.01931748782526182,0.024380892147502168,1.0517059611086526,-0.08922083335246282,0.017645400427878963,-0.00017264714221225172
1120,0.038214466276071286,0.011126180762357813,1.0019845791892503,-0.1584097556026406,0.008260418995371893,-0.011006806386425583
1140,0.13087537398620575,-0.010579500432022697,1.0183224529586627,-0.15533397631305335,-0.00569682631801701,0.0028699165101549215
1160,0.016968570218428614,-0.01626447640149667,1.0186341101744893,-0.14825411891843468,0.000980458133851725,-0.0023156656125632126
1180,0.03739503362273055,-0.0563119035525439,0.998345643879858,-0.06516459394714862,-0.007472230380178012,0.015498208206899988
1200,0.019518006019218354,-0.009553304340093206,1.000719857579888,0.06427518619795283,0.0017833787996363393,-0.02518679670318264
1220,-0.018441198991253023,0.0005656672447662138,1.0061224933167496,0.1776067106364655,-0.0068136715404279085,0.006965312990485676
1240,0.05630929794539954,-0.006596659687563714,0.9831195287944916,0.23967268059841912,-0.011641085091567801,-0.019374037661922756
1260,0.019321108025501986,-0.018978804779569695,0.961498602560351,0.18796095265112556,-0.01438749870767685,-0.011513369051820292
1280,-0.046541817485410884,0.0028979841954711915,1.0132366810300737,0.05473142667020452,0.010613487922065366,0.004940019612172473
1300,0.006070168173774999,-0.008930296128533589,0.9842001251931906,-0.1125492099806652,0.016791034442701087,0.01267809194453589
1320,0.025853932189346288,0.01181841230487438,0.9927493143985817,-0.1636275448013332,0.029081201556565073,0.013560034569605469
1340,-0.030561743766179483,-0.0017863408197369025,1.0330283825479152,-0.21632360642877319,0.0022259409062311704,-0.006297618968119899
1360,-0.012976769640133005,-0.021200711182516253,1.0097357138305179,-0.13849301968916733,-0.0032451018946142,-0.009325371772885805
1380,0.057475818294634176,-0.010566697345826794,0.9889025341305885,-0.06510851540769486,0.0021455167151392517,-0.0013832627539440213
1400,0.03952048586908706,0.007797571869112313,0.976846747815687,0.1011475105240534,0.003177179136084758,0.0036519535812543392
1420,0.10728420817143851,0.002756766689046323,0.9703051869873072,0.14172801689373143,0.02388613065238948,-0.0067484799448586045
1440,0.020239999769296406,0.005160376284026469,0.9967630510840014,0.2045734173175921,0.004748165018849152,0.012034519204262184
1460,0.029261028081066624,-0.008667440336277893,0.989649007379537,0.19667707571304208,0.00892831938590207,-0.008776670707073858
1480,0.002084293105179318,-0.019841521868319053,0.9946459465232989,0.04903047521301013,-0.0067506658861657826,-0.013826064830834874
1500,0.022191739796867203,-0.015705651178000504,1.0256334669125065,-0.06744688080586467,-0.00591112904480828,0.003999407707214362
1520,-0.1174132568854031,-0.002191110700819419,1.0131576517690661,-0.14040436109922508,-0.010496121987180617,-0.014876204242723536
1540,0.1197622966407595,0.026444862189034538,0.9799987830907168,-0.21324873296505995,-0.003958901221813841,-0.003257649134541566
1560,-0.03307414508367512,0.035924002074570506,0.9852115969020432,-0.15840477555624216,-0.006812181738131163,0.015371127005586134
1580,0.022822051609916544,-0.0036821391214466644,0.9849021193105303,-0.0177680993300781,-0.0075300530278039025,0.0003004149636649467
1600,0.008135595860749774,-0.02132242724675816,1.0109847175426154,0.09254829961629152,-0.004007121589645692,-0.0015818121561330554
1620,-0.00969816964538505,0.0021410188095281986,0.987513154775539,0.19242349153733837,-0.002676328980598193,-0.02597264470722073
1640,-0.018594959852956183,-0.013348739660382672,1.0060271584245943,0.21439225543369522,-0.01595319914923816,0.0006056773076259631
1660,-0.01789317265772218,-0.0012831102733917475,1.0099300901569486,0.16238265463362136,0.006310805839734918,0.0050707684642063615
1680,-0.049792430842117104,-0.0021209340911921932,0.9889383509800889,-0.044024337263088326,0.005111835681346832,-0.005518177858488376
1700,-2.1325269086304718e-05,-0.02178094462840805,0.9904107336737383,-0.12732856192857858,-0.002944049453961691,0.0019302330587562346
1720,0.025985663825883836,0.013743509399353586,1.0524978503671434,-0.18320395043393212,0.01117269551582204,0.005350450794203938
1740,0.045164110422057216,0.01028056268416813,1.0090542461227372,-0.17085488613083036,-0.005178950710689125,0.007674489084243074
1760,-0.05360419974425087,0.008304660974387689,1.0042131178970912,-0.1234335654845627,-0.0023393938581037096,-0.006135049968397142
1780,0.016453331325615765,0.02230110707102024,0.9874926520592071,-0.008213830326643162,0.012101501659633793,-0.0033248469721378084
1800,-0.0015675435274196173,0.0033694191333688618,1.014404836319767,0.14163119384544248,-0.011496304865812641,0.0001600744963134902
1820,-0.10633550574785183,0.027873923050219514,1.001891756191644,0.17860027533789244,0.006013886168642131,-0.006538495085542985
1840,0.021227448900001052,0.0008792462513407942,1.0143788919880128,0.19334320488824122,0.010372852223118338,0.007982668491447544
1860,-0.006747825202475556,0.002081676011576885,1.0508309220309928,0.11764283806438727,0.0247174787759781,0.015262158625742395
1880,-0.05054690577780078,-0.003362161699460662,1.0151939029817516,0.035689473152805344,0.003348367436750756,0.0058469529817565535
1900,0.09637818596118965,0.007841625803249055,1.0011558285308977,-0.10065825978133858,-0.009805420086874229,0.008896775559763082
1920,0.07374430845135985,-0.0019728482768241614,1.0449215989725982,-0.17994416366353874,0.005311883785142106,0.0026550134208639608
1940,0.043141609193279355,0.011118329876271827,0.9988902448381645,-0.19736310419332967,-0.005588115343519397,-0.002378973632281899
1960,-0.0601062072147082,-0.030632537439195997,1.0026427144163998,-0.11474058498632866,-0.00586821315958005,0.005776476817157118
1980,-0.0766494662211447,0.017323381922943037,1.021680540472419,0.027499367526743045,0.008299914270849074,-0.00042950335032274095
