timestamp,accX,accY,accZ,gyrX,gyrY,gyrZ
0,-0.1007588145185818,-3.953571395531961e-06,1.0029034128843095,-0.011885650720555054,0.0077665146838848545,-0.005110906903415836
20,-0.16293019863276823,-0.003888183148692502,0.9663700088626641,0.12586168683701016,0.012126101173009057,0.0033566514223167428
40,0.0807534536054502,0.022010947231262002,1.0213368075007818,0.21409082072562197,-0.019248846863712657,-0.004924734993299416
60,0.01596076515247825,0.0005309309486068472,0.95518839861202,0.15019956466695125,0.007614878498441249,0.0029408923651525467
80,-0.017491656921987002,-0.0003572582508717149,1.000337173327664,0.14081023113129595,-0.0043874778271961274,-0.0024704173400474797
100,0.004159911539378014,-0.004188882875108356,0.9812254833091226,-0.028527952482060175,0.01617919258576518,0.0003631754896591206
120,-0.0017124276653695527,0.02893852748504541,0.9895392772866954,-0.13885037908741446,-0.014759265199069189,-0.006267207126225412
140,-0.01141431305696669,-0.010754425884676478,1.0177777346217332,-0.17225064430983889,-0.018359319654519254,0.007050407019591201
160,-0.08294599475059428,-0.01867887124725741,0.9757853621305774,-0.14942960588528345,0.0077646960122994,-0.0057995104193330925
180,-0.0874442214864985,0.002058961624732859,1.001093565945257,-0.13481319452449933,0.004766414660563918,-0.007909969975518173
200,-0.009110288808478965,0.013250288667276913,0.9930998877037519,-0.01065457495298147,-0.011021844788759285,0.017385010037188377
220,-0.1283513179358427,-0.0044809447286464224,0.9833657276561177,0.09358885813260484,-0.002967548216759236,-0.0055289381213254555
240,0.01767713866974032,0.022073318187360736,1.0202638542152562,0.2052307428644825,-0.0007584048487625033,-0.013869900985140167
260,-0.10721230669193202,-0.03450777160314749,1.0321333116263425,0.18396699135456954,0.010982567733240658,-0.009867411202775742
280,-0.05878523200827039,-0.0017512999487606857,0.9955375099959636,0.10769401919661697,0.008443741145722668,-0.009598876964981481
300,-0.05506576612140443,-0.02453741591086778,0.9714894606012847,-0.013770658590608251,-0.007614721239703993,-0.009517424206244884
320,-0.24020335140710328,0.01737609108692509,1.0151732419210997,-0.15287047388225888,-0.007174904237192177,0.010102886738643142
340,-0.2860891502474368,0.016959250198227704,0.9957550414583028,-0.23095676170844848,-0.028653904467744733,-0.0035889894222866717
360,-0.3083320682411299,0.02712824930969226,0.9899043575879549,-0.1597603041034003,-0.0023735459666655244,-0.005501341934446398
380,-0.3916575957096241,-0.015751259489559077,1.0004289094217491,-0.10854301525142047,-0.0031061186918964886,0.0006479110286980687
400,-0.6306974029566567,0.011200327765389933,1.0085466993545933,0.06381983081193165,-0.017116553689368732,-0.00865758555960118
420,-0.7502851181658203,0.00046279424260240967,1.016304512381785,0.13522463232457832,-0.01101782221484627,-0.003031488375926088
440,-0.9139510540894558,-0.011365837169136377,0.9914757183418156,0.1575197427738286,0.011477176009201912,0.007190326967124925
460,-0.9224221898260904,-0.006221732515317484,1.0225593219730578,0.20864922578103431,-0.007217040201683847,0.0005424762000237154
480,-1.0884288600217207,-0.002863641046680437,1.0481824990613526,0.05398292671031933,0.013464093810162989,0.0009195568985496669
500,-1.1900649239469858,-0.025611215901881104,1.0025969412241742,-0.07339883652157578,-0.007735877891554062,0.017569746201273162
520,-1.3075475835354036,-0.028435677320764824,1.0187338981306147,-0.15617951453039314,-0.007290036548421751,-0.0182714861821149
540,-1.3079417073729422,0.01301005670654874,0.9929154786558855,-0.2053235404957435,-0.009026450714383428,0.004713782897516801
560,-1.4542727803429436,-0.012815186500332004,0.9946721275258404,-0.17885595038465216,0.00916370432894723,-0.012866460498941
580,-1.5098936819264157,0.013405266462192308,0.9910732268888605,-0.07501815221233234,-0.0014564978218057185,-0.016434938812049955
600,-1.4835433557596571,-0.032960347980807936,1.023351626458242,0.03081312604724776,0.009358618319993368,-0.013493961729914069
620,-1.518598133051328,-0.04498832798029,0.979816663482107,0.14149347593360223,0.015132846554668183,-0.006763284145752052
640,-1.447226020087888,0.0069256568435402364,0.9963473420890443,0.18372506820399295,-0.0075594396248474275,0.002224919669801747
660,-1.285218976982856,0.009565200503068826,0.9937872490970416,0.1645879140949385,0.008511828053121456,-0.004509307913057945
680,-1.3124631535210671,-0.004055905189740727,0.9929038948979582,0.09658209128016487,0.015567510068901183,0.01564155774623235
700,-1.1305978643518744,-0.015016727630344078,1.0221591754609773,-0.035086249975510256,0.0038194814664733075,0.0033947186129694618
720,-0.9022067058428086,0.028384415140472168,0.9948339693009769,-0.13964138235987475,-0.005432754299399476,0.007363907039055473
740,-0.7921742152032706,-0.008147975586690613,0.9847943720372615,-0.22844732762260475,0.008021356339315455,0.011489461358129149
760,-0.783860991310263,-0.0009131035629049233,0.9802751312753499,-0.19644112102097672,-0.01754165927913097,0.012603340273282373
780,-0.5687890639480443,-0.01002463743611037,1.0268297361407808,-0.09339057695941352,-0.0019884545291147995,0.033494111090631905
800,-0.4884644917672285,-0.006093910682689937,1.0054171153470832,0.02828067973067876,-0.002602140498759873,0.006390841366813706
820,-0.47765554422272294,0.019665272815878224,0.9833405558251173,0.16989136167302177,-0.01042289852325384,0.01350240897151215
840,-0.16383777814643902,-0.004926346310296847,1.0082020763059876,0.24062757727407266,-0.0016690674396420454,0.015584863974685576
860,-0.2349552759076271,0.00501784271978356,1.0166857740268047,0.14950619096908868,-0.0056478989832594055,-0.006860583384112475
880,-0.21543906901399928,-0.006054355318189279,1.0338334496100612,0.07577740615418714,5.827286698230973e-05,0.008629728647811915
900,-0.18153307475852207,-0.02528005563864081,1.011764160734961,-0.06415090755929817,-0.01001163805862544,0.006964821926830355
920,-0.17712750511507208,0.02146604538286803,0.9940495015720527,-0.1483685292914741,0.020349046928763163,0.010073272162795459
940,-0.05414994342335087,-0.04202668582021606,1.0098610232320118,-0.21268597930907457,-0.005400972623219373,-0.002109740381439892
960,-0.04105691921347995,-0.0005124923282755517,0.9943618364537676,-0.15157415310948735,-0.0034695165715655975,0.002938345743675299
980,-0.021386706575169744,-0.02985617431528041,0.967766443519268,-0.046535696134594275,-0.0011868830263381963,0.0007748230696073792
1000,-0.03305989181954689,-0.013640657644039406,0.9800725931617893,0.06741548762217787,-0.013274044084345663,-0.023391257304509586
1020,-0.02239435234621282,0.025309718965761237,1.0524161463665007,0.16675721231944216,-0.004338557946533066,0.0025664209732770777
1040,-0.003022797934361059,-0.014706539189546841,1.0279041873364314,0.21185399952503609,-0.004425190929397952,-0.01754889401418372
1060,0.083547607090869,0.004802958322446153,0.991506598851401,0.1837113497759245,-0.003972732786332816,-0.006637772600182028
1080,-0.00918002804911958,0.026425124061592857,1.0142656495175912,0.07862220734985559,0.012324368723671207,0.0010778571271370066
1100,-0.05813573107259521,-0.0245559091378893,1.031551187339746,-0.0874479042859509,0.010972831717778022,-0.006850854530862633
1120,0.02735552138878433,0.009309180151015449,0.987557274348265,-0.15488828044106653,-0.0003664994749029686,0.014300837255053002
1140,0.047720392116830164,-0.02027837282079168,1.0069502917795812,-0.1928850807433937,-0.009912867723101085,-0.0003845390175992865
1160,-0.08691385521019562,0.023066963177505145,0.9804601407048842,-0.16038221273619252,0.010067015964897156,0.012061400577330439
1180,0.0462398190310576,0.027281738702354986,0.9806862999632641,-0.07162978025498554,0.007154854098242845,-0.024342166498334095
1200,0.011153843351383136,-0.027774281225497834,0.9771717812162513,0.08947636283542222,-0.01611578991467198,0.01834594802708594
1220,0.034242044129692444,-0.012994196693417318,1.0041711067455166,0.17484191524510576,-0.017203640346406056,0.007256398126652598
1240,-0.0355507605667837,0.030863203189472808,1.0168245484248781,0.22587773897694982,0.003865296430493358,-0.016887962189694752
1260,-0.03922058709431712,0.016294163464183713,1.020162182705098,0.1277080173257314,0.0001702038485402492,-0.008761491111792162
1280,-0.02389427175307651,-0.012396863343787952,0.9708645274926487,0.04415590613559558,-0.02620927525614545,-0.011420873395764428
1300,-0.06842448332650539,0.010382079616596974,0.9970639543297143,-0.049756770010394566,-0.004924314628037336,0.002038527958214287
1320,-0.10327664458693424,-0.013947895316858921,0.9944580394239887,-0.18000449880339012,-0.0005438821438022546,0.005969350247906986
1340,-0.058329072312703435,-0.0004002169386178529,1.0053705278113254,-0.19083325762414272,0.020428573934950674,-0.008154986634202494
1360,-0.0018074602247824365,-0.008937296885925634,0.9720888446222515,-0.16391110161212433,0.012394533283667207,0.015984898606653662
1380,0.048005691387310284,0.039241183265263276,1.0162036711327658,-0.05393596002891797,-0.014498264545910567,0.0124375241166129
1400,0.021530773366367092,0.003582532449381991,0.9614489337805235,0.09330131596349318,0.005841455285580424,-0.006273535692393549
1420,-0.0024049993315291636,0.019355999564835455,0.9922296444284072,0.15734429362035746,0.015423698122153289,0.005757324699115499
1440,-0.060669087153503214,0.007212872134486574,1.007778002863575,0.156215063614428,-0.005891537908815496,0.002883246990856155
1460,-0.033137641334724174,-0.026008857433057753,0.9623349876203477,0.12306943279221329,-0.003503366607704595,0.009127749353989544
1480,0.05972064194706411,-0.017700687059703134,1.0112800133221123,0.0023334412414695235,0.021297473664562347,-0.009123532862961838
1500,-0.02266030027218322,-0.05933803474312773,1.011636953850305,-0.09876512636581872,0.019659038492628293,-0.0009835825895128537
1520,-0.0090252265390458,0.014778932340316814,1.0308734465486227,-0.1950455203406235,0.0032662024129219342,-0.0055457394691946806
1540,-0.02117060907054461,0.010560267118609228,0.9884888987718312,-0.15482970725360895,-0.006236836108486802,-0.008393334171246682
1560,0.012020828139188481,0.018005923960124487,1.016802379088246,-0.1385653042764735,-0.00039877713159208,-0.0012456519484268806
1580,0.044275897107636186,0.06936520226139324,0.9853775557751421,-0.05559691256940656,0.021145408992840644,0.004225662470205993
1600,-0.03926082919540374,0.016101431347153267,0.9550492364032731,0.10350579654346168,0.006249735807360419,-0.003016985251256297
1620,0.08882614885279913,0.03051978978873763,0.9661497955722446,0.17913797695316086,-0.007853839488601659,-0.004927123134002579
1640,-0.010317458973852462,-0.013879316129801103,1.0009974637924652,0.2171977851456906,-0.003652863992227493,-0.010080419766556761
1660,-0.006844023072598611,-0.011027288671482758,0.9946469085359791,0.10430153407981645,0.01677389648708245,-0.006468354171170497
1680,0.013003589003109611,-0.01510673544122356,1.0233634377789238,0.009384628698297644,-0.010125620223315365,-0.0028197576593903973
1700,0.021259023676847292,0.009585538733612453,0.9960427673037295,-0.1091298535960614,-0.007835847635768558,0.008200929367939295
1720,-0.02603475377408677,0.03350410087993098,1.0131272976983918,-0.19968593177008037,0.011352056408573208,-0.008329044314339487
1740,0.04142218729115602,-0.0037865989401561734,1.0147170106587706,-0.20225078814191574,0.0231586198286085,-0.008659925587857583
1760,-0.008500189120956398,-0.0009816075252604872,1.0166740965516616,-0.13297493708793914,0.004074099510847024,-0.012572773479902271
1780,0.0024183191289609382,0.005901019182071396,0.9916672704607346,0.0039978336072513596,-0.007776650101959944,-0.009169345585475752
1800,0.011600188506897502,-0.0019587226946546094,0.9945985419851721,0.14096097227201632,-0.017493450319023877,-0.0042922288837551085
1820,0.01480699883995586,-9.267456065121962e-05,0.9784357260904545,0.14690035207413446,0.005850856802191381,-0.01249923903494926
1840,0.009308464357122544,0.0005368842186356542,1.0264776184236792,0.18417910721172756,0.00585486297597882,0.0018093929987764044
1860,0.028050208672516473,-0.013802205925365943,0.986000357624192,0.10735284640278861,-0.007477579363104951,0.009918101882325017
1880,-0.03136361032767659,0.003505917383749453,0.9856251194434895,-0.04237554619796241,-0.010996503843885909,0.015762654264117305
1900,-0.038766770632704506,-0.033032157215314856,0.97677671227963,-0.08671564273074135,-0.010710615675507493,0.03190715863390417
1920,0.003934521261400552,-0.008903786725389695,1.0068417587092804,-0.17572304327767202,-0.010232480999259067,-0.005192950684746008
1940,-0.09968216551498749,0.0034122098951983922,0.9881813848547122,-0.21131378844618065,-0.012916144976527029,0.0006992631113024354
1960,-0.07782068673159828,-0.014058439372077097,1.0119461213037897,-0.14227812818828064,0.010192489193006618,-0.015276367406759141
1980,-0.06030507303103644,-0.007029253758907156,0.9602200377455528,0.028050508261992797,0.007460503298411481,0.019396464055478426
