timestamp,accX,accY,accZ,gyrX,gyrY,gyrZ
0,0.0423843704767256,0.008365854013592144,0.9857917515238359,-0.017946424178100034,-0.0006966443024169623,0.009362369409267992
20,0.03233738722972682,-0.02737970038079351,0.9784387480323099,0.12144906087661844,0.008222835516792685,0.0064873241178114915
40,0.0940777745217662,0.03812848278504021,0.9934198989412444,0.1703612525771726,0.008101706851811465,0.000182794224442346
60,-0.07115416190233016,-0.013585603964191971,1.0069675694343585,0.2051277456684342,-0.011747103748339085,0.004039308857026619
80,0.12343901456630159,-0.027254446479558016,0.9948221809487987,0.1388508959913231,-0.0018959141499931783,-0.004228905913842977
100,-0.054043385371970745,-0.017384118224326017,1.01293292055363,-0.03367670871645777,-0.0006471915247697994,0.002277745991365709
120,-0.044818342419037434,0.002479736413608653,0.9730879159747472,-0.11076890214679147,0.0036629261055892595,0.0007365659332984693
140,0.017840818738853084,-0.016088073933637086,1.018737878749456,-0.20633075716688423,0.0031362747081547003,-0.008437423661277978
160,-0.03144222041923066,0.016397266715366402,0.9759187052944814,-0.1535122735672473,0.02102536070520773,-0.01907272988273406
180,0.0011516142048098067,-0.04829606249313652,0.9897366814955033,-0.06742114688611296,-0.012840712695834961,-0.003273950045356125
200,0.020305484176027858,-0.020242905765860488,0.975121527231964,0.01993441917364492,-0.008145738582251642,-0.012196395537182539
220,-0.07644826689675113,0.02029173028975647,0.9934408971622876,0.14740165233214397,0.009214996394398071,-0.004380230500191983
240,-0.12948864062781185,0.035342869979869164,1.0024783573360778,0.20109069750569872,-0.011194445861125744,0.0061937257469046785
260,-0.0333072289929281,0.036582117605397785,1.0020814878775939,0.211939685440795,0.029021078113282774,-0.0012235459215889659
280,-0.09774539619378383,0.02143695072438843,0.9988146344190776,0.08348708184319412,0.03326261236266756,-0.018725431952875828
300,-0.04145186140073369,-0.03511795920618316,0.9810870178222565,-0.02307290173783305,-0.0005606366538048016,-0.010778903368432197
320,-0.3102212439444938,-0.026071478425734408,1.0180849456207763,-0.1624790130871614,0.004850583556279628,0.004497730911400587
340,-0.2313694819405469,-0.007513911851458912,0.9856837011949818,-0.23193916282610616,-0.012677284823372324,-0.0021708751797137765
360,-0.3829224380314058,-0.012557404580053394,0.9901698043979109,-0.19899122899310775,0.0016042937768340787,0.007000434081995136
380,-0.3785582639711924,-0.002045253231217443,1.003254539941189,-0.10587469736681744,-0.005402230632623152,-0.0003586510313706001
400,-0.4602915282353146,0.0021640291967084026,0.9988012776702454,0.03317903827646712,-0.020792806242372334,0.010907293118105333
420,-0.6963959069935403,0.012809931644729624,0.9756917347539734,0.14085866099408093,-0.0032504285806884215,-0.004758312510611782
440,-0.9014615498353724,0.053109199429215964,1.013067623597489,0.1993985273047499,-0.010257866421971287,-0.010479475501823233
460,-0.9265174214377419,-0.031992845303947505,0.976170756847566,0.1681620513742794,-0.008634281824641621,-0.005600566839083663
480,-1.1006990156261478,-0.0042387623389143585,0.9854373585426222,0.07080335664749003,-0.004656203305397851,-0.013227063692042447
500,-1.21108344950545,0.018815682110566355,1.0144490446134429,-0.003885499022530204,0.0020618138467529933,-0.009834544688221569
520,-1.325472338769914,-0.016528796730802216,1.0124044807857244,-0.09249232472786229,0.007360948350591184,-0.009543255104011024
540,-1.4051178930522061,0.011607045183280344,1.0255229082196533,-0.17200354139931384,-0.007723374479969469,-0.006722073055475867
560,-1.5157566977788353,-0.014984600735987315,0.9893774567839474,-0.2037893523380642,-0.002165149696388183,-0.007424678057470156
580,-1.5383257772842014,-0.03982184569965579,0.9556581973127793,-0.06152003872301418,0.004900821773247842,0.008306642516774116
600,-1.4538640484939354,0.023964085933129518,0.9851872259133041,0.025252889952102724,0.0010381825649214745,0.003553521978368108
620,-1.4453915121109884,-0.03475605136049592,1.008834884206706,0.15642353669821796,0.021788903787608907,0.0031617754615604404
640,-1.4543524911080863,-0.03203851986513979,1.004480325864875,0.20367768273430964,-0.02375131360486982,0.0037347479112720284
660,-1.3243850741747571,0.022674040881047044,1.026561445541764,0.16747026388176084,0.005896267950142971,-0.013163941778768734
680,-1.2994658214836676,0.015287719956764992,1.002667954967888,0.02052590087219816,-0.011820854200266595,-0.009328469645495904
700,-1.120864178835263,-0.007212350606413473,1.0144822541991705,-0.05161629724111761,0.01023596189710002,-0.0005444855346740128
720,-0.9926852636191287,0.01314577734849559,0.9951556385422953,-0.16146856506889323,0.0025306052680901946,-0.009041000127824375
740,-0.8994364592870396,-0.0013480158606316,0.9858619108141384,-0.18865079186508416,-0.0047428348116767115,0.013248179011759256
760,-0.719924470341315,0.02135794567248523,0.9605104473960138,-0.18408948344791054,-0.003984604079700698,0.010213181832050874
780,-0.5609144806461107,-0.024107693490215267,0.9891901060657752,-0.03769818480214824,-0.0012354045290371982,0.006750816948877322
800,-0.48809109528236716,-0.006341532060099847,1.0269232451297956,0.03375537083350897,0.007189704173226789,-0.012234820513678324
820,-0.46766705466447106,0.018963538517341897,1.0005065466150571,0.13676353566802335,-0.0072327222135198975,-0.011136720974834409
840,-0.31473020866811335,0.028740401892234736,0.9988520255676648,0.21392246044041127,-0.007493762311150541,0.0016084347132640558
860,-0.2682897462159673,-0.01319848271017001,1.0402071835913123,0.1577594302996634,0.010687254198943247,-0.009928698090376265
880,-0.19282653153296211,0.041917628130935775,0.9683414254616477,0.07497838752861921,0.015384061399615439,-0.00841658903182976
900,-0.20243269896179286,0.009113833424191366,0.9642385294448164,-0.06579304606225318,0.006114792617601522,0.011620900766332917
920,-0.09617622216756296,0.027431683522051335,1.0127560425887596,-0.15127597738964632,0.009889288000154461,0.001177763144069725
940,-0.03528054376468901,0.009065071954154904,0.9606598098927632,-0.23980401448417155,-0.010056429615830009,0.0005001874338435472
960,-0.11212874420415767,0.001088426084042379,1.0230927802043055,-0.17021688919257158,-0.007475958142285413,-0.004227191997778509
980,0.027570918607693486,-0.0027014550969760905,1.0061985677212288,-0.06302542877577455,-0.020834882685230757,-0.01659556251838716
1000,0.0036459218713006114,-0.008203446272450447,0.9766508680809428,0.06011204593200993,0.014906696318080346,-0.019574637674287753
1020,0.035452984809840965,-0.024854144866666462,1.0164958428955209,0.17304006309184858,0.0006673547795472976,-0.00028850540977516393
1040,0.037340578589202145,-0.00964029942561088,1.0121933639199014,0.16722669156162087,0.0015687432732043847,-0.010739581422635995
1060,0.0043374281539141045,0.013233812190575314,0.9602754039191544,0.1423295580728529,-0.008979675870732196,-0.017136179091342563
1080,0.06239239699466602,0.013504143473534187,1.011216571811073,0.03270490846148672,-0.008395413427148545,-0.007821464252794109
1100,-0.03952613374872644,-0.01901849595679495,1.0298691081792277,-0.08954371354354093,0.00019500257960735644,-0.01674857740395929
1120,-0.02811296191703964,-0.0063178544762978244,0.9937810246463836,-0.17121742913347873,0.014496035241001324,0.005896077470656216
1140,0.004352226687438258,-0.01194951092981811,0.9831357243684364,-0.1918192937144013,-0.0003379209435496268,-0.01370910652360659
1160,0.07850935293648563,9.614035414880582e-05,0.9984456956570555,-0.14887694101066073,0.011568741412705563,0.013933758807373782
1180,-0.11437892468525793,0.0049827540066097,0.9870983235217721,-0.03863686288559383,0.012073129400031489,-0.0025962138896529784
1200,0.051143849033143174,0.0385958196729239,1.0137571075593719,0.07814168939231049,0.002545106412533511,0.004430392344751093
1220,0.07007493935806129,0.011465679290481333,0.9880549094333776,0.1293331038282337,0.003938067739413633,0.013676157209345268
1240,0.04331802200639328,-0.0006865860914060943,0.9810164985432631,0.22202209893554498,-0.0044818554709870895,0.02290500056178639
1260,-0.02855830347326274,-0.007864824231518405,0.9943857975851901,0.16926695080735013,0.00378093732090387,0.00483782888564497
1280,0.011573234522530515,0.03347151462418939,1.0083116467830382,0.014149382282084861,0.014238652317785103,0.010064894637461571
1300,0.06286999240517609,-0.0023199053276560942,0.991842494251415,-0.057600650584575086,-0.0034926141711022693,0.0036327464848129147
1320,0.09121617852192168,-0.01165792260667228,1.0255837406248942,-0.14779708409935577,0.0014917337543455503,-0.00834651505400192
1340,-0.003282992705443232,0.02223221635140688,1.0110831725081273,-0.18959758764128726,0.003883780044304594,0.0018756585193840112
1360,-0.04457167929188914,-0.008149311165550743,0.9838423304654076,-0.1685846698172306,-0.00630335878852874,-0.0011867816034092015
1380,-0.012873616989030988,0.0009701082283078352,1.0068374398560755,-0.05681497067862384,-0.006419784979112528,-0.01139472563649114
1400,0.013426538019370082,-0.0030047437073860124,1.0001367894089683,0.07806242308815312,-0.009675441745817677,0.0003008622240147284
1420,-0.06417022634358949,-0.007434719342772307,0.9952738995421111,0.1729579894331491,-0.0018852430217765734,0.0070693902640866215
1440,-0.04958423419068536,-0.006662996026011863,1.0145594721413809,0.21753874741239337,0.008229396862196304,-0.005975821020696978
1460,-0.014171798097077795,-0.022222055274425195,0.9873912995863338,0.1472442169583767,0.0045416648605418365,0.006882301171999282
1480,-0.016907831427975344,0.02123914202071868,0.9821323948074804,0.04813885662922261,-0.017363224192163813,0.008248779789855377
1500,-0.020591498862754,0.04369073337278627,0.9596941485867191,-0.07654123862934496,-0.0066833038974348094,-0.005663887148033368
1520,-0.09892650489481174,0.004931491541281528,0.9847506356592227,-0.18613043583464783,-0.008206929503468978,0.001628664098908165
1540,0.03028848849071091,-0.014273648838592251,0.9852648537355271,-0.16599010338913084,0.019083317864454285,0.005613413081846317
1560,-0.04209932230634637,-0.0001571277527250059,1.0048996103542152,-0.12111406000877169,0.003399891939220892,-0.0019011439391600563
1580,-0.04187614815354196,0.007503809628994395,0.9932991828943658,-0.02742929415580825,0.0005479621102826081,-0.007859791779995278
1600,0.02708437506466342,0.00960079384222839,1.0190365101065573,0.09667010082383615,0.0070464225433695005,-0.007553343848388753
1620,-0.04278648117884253,0.0004216455010157194,1.0140016107657086,0.1646993261711564,0.006152792857351708,-0.012252493874765775
1640,0.01174558339995045,0.02037662721968304,0.9822112383005774,0.19355856501114319,-0.006407508432874591,0.006620352261031968
1660,-0.07698599482897445,-0.008755956903364765,1.036587017452944,0.130627538349994,0.013959385299799851,-0.009580058069499079
1680,-0.0009540443429358978,-0.006952863536312166,1.0060874041979913,0.05886750164060823,0.010916445770400842,-0.005725468425964961
1700,0.12406031007768047,-0.009473586559026689,1.0143165871340685,-0.1297268821992247,0.008990292377615403,0.01205453035308572
1720,0.00015598089062906413,-0.025027188803944257,0.9932909771179314,-0.20196051569980783,-0.006132385393794503,-0.019883202616677274
1740,-0.01931075924824582,0.024762387587788936,0.9719642288542306,-0.22678401669396595,-0.0037019781880997266,0.02198901275214249
1760,-0.02298473827435469,0.0023937416942808295,1.014580667418731,-0.12438268525274528,0.006047708745827948,-0.0027479944578740773
1780,0.0033569016986508557,-0.02163570214525934,1.0054076242186891,-0.002357016747730265,-0.0014818759876016787,-0.008940741411608085
1800,0.0045892446372123195,0.023756069014936775,1.0361476974469623,0.09823590060533297,0.002295407294377638,0.0022780087828635125
1820,0.02047672087912257,-0.012417430821561081,0.9999934438625191,0.17905556404012335,0.0036016553688326724,0.00012094160987923725
1840,-0.03536036933978484,0.010665063643160158,1.002991885469928,0.1722394141210006,0.006219279759899911,0.014465703941869206
1860,0.04310253084953628,0.017787314412018116,0.9967000210044326,0.11793501597646051,-0.0033830037671669783,-0.002388518052731523
1880,-0.02576196339284318,0.006694391057525687,0.9872746573562682,0.0150424794843864,-0.005596270004427577,-0.02205670729513255
1900,0.01329669497575701,-0.0004060965164300362,1.028275910193467,-0.1057239386015183,0.016425013747908033,0.00201942960319573
1920,0.019104323426401226,-0.043081351654491694,1.0061595554450247,-0.1914032842423542,0.008463889903025141,-0.006780151227995233
1940,0.07997974970470184,-0.01881417831457304,0.976153855139329,-0.16893678958757533,0.012910388397425468,0.003062549066702547
1960,0.07577934842138374,0.01552869762203396,1.0254720949766034,-0.10629767940399226,-0.004991528165769769,-0.009585870828822866
1980,0.0031097041001109725,-0.03888134585773892,0.9680220466402459,-0.01828286124293291,-0.0028723940811276358,-0.002185083699271425
