timestamp,accX,accY,accZ,gyrX,gyrY,gyrZ
0,0.00851007828293817,0.009450149394248167,1.0216545178417455,0.021457353835600414,-0.0011807048569058068,-0.0008439119003113808
20,-0.014101377081560099,0.026199355725145115,0.9922588044091046,0.1283316865228424,0.0020701805011132586,-0.005448259395577751
40,0.013678176572858467,0.01908514203033696,0.9944870019952918,0.16996421759449087,-0.013073562620282893,-0.009988360427905517
60,-0.006691858957654704,-0.005052580252038664,1.0150099087917672,0.20247790819314773,-0.007972467975725326,-0.011863422500245465
80,-0.04807129254801776,0.035927447388356425,1.0147072695095858,0.1127268293366431,0.024391271541745568,-0.009334903349953969
100,-0.05010383680278201,-0.012672715777467874,0.9781771827757462,0.0022148489823892205,0.00427547585033032,-0.000854342485821159
120,0.02530407044270629,-0.005207320444057108,0.9863231085112103,-0.1308075844873862,0.013726904058830097,0.011966745930594656
140,0.015943885054533383,-0.012768315356127847,1.0108017203243311,-0.17418040285105868,0.01706134603021392,0.010949663056708343
160,-0.0819226464484062,0.02557282818344594,0.9924341131763526,-0.17372364126497253,0.004611475691692306,0.011446948002130123
180,0.029883083783323074,-0.0009890915837192358,1.008979449163354,-0.13350308669978767,0.00033443003533149335,-0.0029762525066572895
200,0.04060616694479008,0.008566260312590616,0.9851859984973865,-0.0002357572292217957,-0.012157204751202983,-0.0013464386352695775
220,-0.06885351899598854,0.011657379475818453,0.9631966837536559,0.12591666778040322,-0.0036424008337982263,0.007590052334811343
240,-0.07410674575971066,-0.0035904142031548784,1.0000585851605062,0.22602178544928042,0.004260471975287064,0.004560080695613591
260,0.030256204279386023,-0.012497558483199729,1.0015301983923162,0.22843975291219523,-0.005736052356554707,-0.007644130099451132
280,-0.083176776670706,0.038026830058496504,0.9823046362291856,0.11026791382591278,0.008862135323101284,0.004408224820212046
300,-0.10521791785692802,-0.005647806548689679,0.9841423009719524,-0.0026388557462929327,0.022383172265355643,-0.0056015011251189075
320,-0.15935437359745594,-0.009330548652975943,1.014582755339729,-0.1009917423802857,-0.0008820043009090166,-0.0016774336232329723
340,-0.3219396636615003,0.005928961733491695,1.0264495482819722,-0.1619762635151754,0.002637257243893595,-0.0021509195105225403
360,-0.376975689392502,-0.019631511070553928,0.9739202932274642,-0.18320959125090117,0.02149244811846876,0.0007277249197268571
380,-0.5661879782176963,-0.01136873605521969,1.0036184920414242,-0.1012231473759993,-0.003229474957074454,-0.006043350189351566
400,-0.656315030472199,0.008004297698334661,0.9705879450836696,0.0551887030065947,-0.007740524488868923,-0.005299728470082878
420,-0.7355818521041984,0.025125017274972794,1.0374577878538294,0.14552470148554156,-0.015227867834144256,0.0025604342335445148
440,-0.7759347973061896,0.018977883867696225,1.0058741259580204,0.17764763134988615,-0.01114128164015037,-0.004519209084669892
460,-0.9711603631608845,-0.007929023874740133,0.9753531369671298,0.19448521464466167,-0.0014255932907852728,0.008645650682437228
480,-1.0777357071566969,0.010720698738020496,0.9955828434999402,0.06825854977371607,0.009086256643567164,0.0003083377258734786
500,-1.2261641200671196,0.0006385269051140441,0.9800628466558258,-0.008014786933967375,-0.009771155843613617,0.002020583390917443
520,-1.23379060247532,0.0354458205031347,0.989408878666556,-0.1401407774012574,0.0008192824048273422,0.01801794415346195
540,-1.3956827048063614,0.037283648164253336,1.0288979930847613,-0.1530116881769071,0.007559528539540349,0.008484292153917154
560,-1.5228142701495595,-0.011842195128693129,1.0066091489094111,-0.17050545338168505,-0.008037922124597667,-0.00946886396434207
580,-1.4178508543293775,-0.0314254711083998,1.0415677172590956,-0.09390610609267477,0.021196165520933778,-0.0017906084683861727
600,-1.4312871683172035,0.03048681937611851,1.0111946184588578,0.03542383614153665,0.003843266429361106,-0.014303016652943604
620,-1.4746082669261822,0.005259973940709972,1.0170812398261335,0.1116438143489803,-0.015729549988615407,0.010722478787583662
640,-1.3044636098328262,-0.009091956629277772,0.9887469634662448,0.24229587616510953,0.005802844484165518,-0.00530725537170302
660,-1.400186108834841,-0.057302618735361216,0.9842581377679407,0.1554302681861138,-0.011412267321569318,0.004512857754942926
680,-1.1442085234435917,0.02804591800694045,0.9997448948507064,0.0551403373041381,-0.006800363412231584,0.008919979752973787
700,-1.1337449039794472,0.007372507146895066,0.9907572134273347,-0.035936976259291084,-0.015109993930539273,-0.014124639527751838
720,-0.9167553359795616,0.0029686546655743927,1.0025484882997215,-0.20634543414859047,-0.00277840326110244,0.012461216105024351
740,-0.864077973260984,-0.013212212484904227,1.024659449774535,-0.2229603237439057,-0.0031018295365905775,-1.4248744746935569e-05
760,-0.7460143480821403,-0.025108324504167934,1.0218296306844947,-0.14032724698562257,-0.0011463325553069544,0.018214791810419854
780,-0.5991074831398553,-0.006989367576019153,1.0126560758233576,-0.08033914476817426,0.010881206329209034,-0.0017180237874504076
800,-0.41048713558008426,0.019530777966770666,0.9588502406393017,0.061904847270764576,0.00530694923126672,0.002404253368001769
820,-0.46668244636553674,-0.00050719223801746,0.959162159311637,0.16284226324436324,0.009912536366580259,0.011134660411483794
840,-0.2920267067765083,-0.03083913836345845,0.975546949047117,0.17704693046910286,-0.0056412456601570475,0.0024447714724647267
860,-0.20197655794452177,0.003466922573762889,0.9628549115934386,0.13672004136044694,0.008445544981505036,-0.005181607839603771
880,-0.14429318925801463,0.036135900521799984,1.0119226463194717,0.08319395602299967,-0.006527434206928675,0.007415654547988866
900,-0.12177592420883981,0.019285070865004583,1.0009265126695375,-0.10293150491133654,0.007983336744022428,-0.005456119247658441
920,-0.09525836132668832,0.013686378779889825,0.9949333893261351,-0.18185447328054732,-0.015754565717008603,0.007011967279741253
940,-0.055723477418460565,0.0213815516288848,0.996668759321641,-0.22105012292314338,0.014071141448981028,-0.0011628412397673516
960,-0.005862100998612632,-0.006261429799096711,0.954407765848881,-0.1606582582132208,0.002447423877909479,-0.005311444498200559
980,0.010850176512597877,-0.005140286809354465,0.9851092690093595,-0.08910039430414378,0.005801986090991752,-0.010871508092292015
1000,0.009336580664009185,0.0039014221006395677,1.0109234082622056,0.04024179754950587,-0.012561228631403725,-0.010992895669569245
1020,-0.02619811292441777,0.0030073084670389273,0.997539923391044,0.20016448172939427,0.0012306387653343825,0.002395940115348948
1040,-0.06125929177604726,0.01895725409540814,1.0161612620023734,0.18585231698170745,-0.00546925462418086,0.005176858686688307
1060,-0.011832410752513454,0.03248458445337514,0.952466368933933,0.1675086540172255,-0.003826706599637797,0.005802648899117488
1080,0.007910930567452746,0.0023027254152196393,1.0344152225779493,0.06965128831504375,0.0094041306946114,-0.017932477749532813
1100,-0.043119409505189825,-0.02853583843926225,0.9872397640748541,-0.066448431289351,-0.003048977928005745,0.008677798523360735
1120,-0.0031038006834288477,-0.021073973847846778,0.9977384044877657,-0.14753298628375142,0.000924372544290026,0.011281476453564447
1140,0.009813932251082649,0.008988948660825889,0.9912071333829161,-0.2004005594857788,-0.012767446406770713,-0.01206808253935764
1160,-0.031560777355815084,0.01583345369559689,0.9824840382775938,-0.18098579509062374,0.004852869473301028,0.019752308075131723
1180,0.10934696825994279,-0.01689256179698992,1.0400520615132465,-0.05626525342025304,0.009090825014123977,0.015421799909127804
1200,-0.030759400625793416,-0.013540709206350608,1.0255063483169495,0.06764024481389364,-0.00253698639715799,-0.0044885210972638
1220,0.03434596313573787,-0.026944104122182542,0.9637713977358104,0.16342949619670902,-0.009507306090696966,-0.009181715281984523
1240,0.003345961466230555,-0.015755550879266167,1.0292149059743207,0.21427997021287554,-0.0014425808215472774,0.010188633612832221
1260,0.03172144576380865,-0.006203503033231372,0.9660170929925681,0.1089523873306712,0.016931137852094463,-0.00936209081655247
1280,-0.05591589367110942,-0.009582856569575407,1.0113289302374322,0.04313800300146432,0.001604982754842326,-0.0020169092172895066
1300,0.011413202223077191,-0.016240705456863833,1.0067805541274342,-0.0899155069399353,-0.014569786814932253,-0.0021835873382469455
1320,-0.009861300473003926,0.01168041478592134,1.0053025329583087,-0.18060117994328584,-0.0038839746739992888,-0.0020450439480124843
1340,-0.04667934384407449,0.01835902148810071,0.958487872554254,-0.21362076552260884,-0.002401556997988605,0.009212349639014763
1360,-0.05587866122192801,-0.008636970819889667,1.0397418994431062,-0.17859353210010454,0.014069843687158953,-0.0015630439729289547
1380,0.023784735941948194,-0.013238682295840394,0.9917959038960886,-0.0326934897833237,0.013743051137166997,-0.0005475597260052239
1400,0.02951538353913947,0.03258151242257367,0.9990504147020254,0.09384000522965512,-0.01690140522452593,0.001737606391935463
1420,-0.07362358798991225,-0.01711677439295898,0.9568693961441134,0.1911782377485471,-0.003155398804723446,-0.0009367245638334153
1440,-0.030192012619348996,0.010894489443577625,1.0091622849048596,0.2068550179426719,-0.0012485241142554588,-0.0009552272330365511
1460,0.06091765704712969,0.03959121510445571,0.9700186665230314,0.15641757248055935,0.001118960761849989,-0.014806844972769288
1480,0.034906842620709005,0.027953909666125102,0.9892871917065243,0.042625934077531416,0.0008552877731858054,-0.007916139446482588
1500,0.0827910668106413,-0.01722899368899958,0.9739723707175951,-0.1199194976494858,0.002434773489774293,-0.006140525980976084
1520,0.015410141459302603,-0.004101738372680062,0.9888009240181586,-0.1835687123909657,0.01311883828617205,-0.0010158227168727226
1540,0.023172013497819225,0.030382916928126762,1.017949617835217,-0.19189989421238537,0.010739376167600059,0.002390115383110283
1560,0.010115183400621139,-0.005339211285094544,0.9959888433775739,-0.135465973940812,-0.020651938307392325,-0.000373699254507673
1580,0.07171337226881164,0.006215639771549583,1.0048121267959622,-0.030657479135084702,0.0143925115038424,0.00855089610578322
1600,-0.08147011358626693,0.013779787418604231,1.0073619410392196,0.11831365267799505,0.005932078412500236,-0.007610234162938771
1620,0.08340900234419786,0.02380772044848703,1.0220570726520666,0.1888757539677759,0.0012923503853985042,-0.00828262247359396
1640,-0.0008892909060138833,-0.009756036640485794,1.0135114188955483,0.15972673619625594,-0.0002804647183805987,0.006464282578701107
1660,-0.03285191213923324,-0.004526142033952931,0.9985535729735953,0.11550720106614064,0.018451183663151502,0.01710533523653907
1680,0.06040550862905344,0.049313144964208994,0.9914350816540729,0.02035733769584315,-0.00853251996752106,-0.009208127624207392
1700,0.0031291632603058883,-0.0303254009921554,1.0120419885103835,-0.07309307704249095,0.007315037142536777,0.022033886008257814
1720,-0.046636930659337245,0.05764273363770458,1.0352117691677583,-0.2526290062819659,-0.0023073001376349898,-0.0057556854064548055
1740,-0.04535555958131109,0.019445441708582745,0.9880671950513829,-0.19511737542967217,0.017551700134801732,-0.006940807345847032
1760,-0.061992792244132476,-0.032112476860491984,0.9962988699847285,-0.0943698392260891,-0.010357899938942513,0.014941847423423764
1780,-0.01441696323062572,0.02559328406418486,1.0008620150382466,-0.012893793811226522,-0.00038555870471550035,0.005523614403119316
1800,-0.041016715287540036,-0.011095664904145684,0.9981829992131859,0.09346789763174616,-0.004703332971791248,0.0015703299782023519
1820,0.01311709070479002,-0.028015134022705748,0.9461666510458111,0.20277802880972323,-0.0034687034009504444,-0.00991333475259738
1840,0.02705349230110762,-0.01796647238099785,1.0111297884021502,0.17176614082697206,0.0019130828655288625,0.003946920171891764
1860,0.025578000646105374,0.007772339748411752,0.9849783748849268,0.11664696273207434,0.01611610885447587,-0.012407071110231984
1880,-0.002315827676108505,-0.010092293873944686,0.986120004054454,0.0005585944631881709,0.00105815890839234,-0.018939618303153806
1900,-0.07613704462373024,-0.002079889310843907,0.9997421646946683,-0.10481670983157643,0.002082465611206392,0.008746553939952115
1920,-0.031056729539180074,-0.04099717203532746,1.0311674655039673,-0.1594497625227702,0.004996452048434051,0.003107037150719315
1940,0.05608863835739121,0.0071608916238823025,1.0119730765731163,-0.19480912866784206,-0.005386728302078247,0.013505028374372428
1960,-0.02376322039805427,-0.021817754755126144,1.0068302086213359,-0.10991253440615936,-0.0034856376700839803,0.010238740361404645
1980,-0.02716791892525249,-0.0292956875989355,0.9834540570093439,0.01614947779898536,-0.005648237365847102,-0.002586442806462597
