timestamp,accX,accY,accZ,gyrX,gyrY,gyrZ
0,0.004482088849313517,0.037200146438673164,1.0143399031662792,0.016083440338709752,-0.014756779862656546,-0.00438334603588348
20,0.055252099674886486,-0.031038053923584663,1.024893121086458,0.11640425570570642,-0.00470079919810313,-0.0035502590676352204
40,0.055504652110015866,0.002704281290216806,0.9962188030806813,0.2057489221079203,0.01688239322682368,-0.005718237469820557
60,-0.08857037594099045,-0.020908408577699853,1.0005985831708843,0.2298388952065211,-0.0017434456372752364,-0.0058681664445911896
80,-0.03779524973289109,0.0006471555576202133,0.9985911067054197,0.12026673367266094,-0.003196993625685503,-0.003509842068244106
100,0.01793314118678195,-0.01896399460104408,0.997442470974182,-0.022885022421352447,0.0005512733433852435,0.00769149376468501
120,-0.07864490598357499,-0.0017575509615835,0.9933295612031984,-0.08730869352393146,0.008651005525435415,-0.004402684342488209
140,-0.0355895471820956,0.006621707326289236,0.9905002132173042,-0.23221900614211471,0.0022027071530960948,0.002043644405968637
160,-0.025341747935597014,-0.035758881927848,1.0199721610859396,-0.15300420987812335,0.005246215213016556,0.000751452975221992
180,0.04049869987407234,-0.01107666398429176,1.0395184827799107,-0.12276320986199975,0.006284114449624445,-0.01749376539364346
200,-0.03956928916554121,-0.019357861811467886,1.0203789534148995,0.03815283652132275,0.012366927629674361,0.003508411627015275
220,-0.055932567582429815,-0.0011146197892441772,1.0001839922378213,0.10556125251363446,-0.004533418823075811,0.001525782686409511
240,-0.050487395331477954,0.0028406558892600155,0.9862861474876602,0.16512723113618571,0.005756263671699985,-0.0014287752646387107
260,-0.16935596238689613,0.012333740397117515,0.9812789912163163,0.16965530152305297,-0.004471112276730825,-0.010795582108338116
280,-0.17337432987329265,-0.012867978786551626,1.0072334584818474,0.13508994551416814,-0.011615227541539737,0.006688197414805001
300,-0.14023835297947038,-0.006946510947926332,1.0380922487511701,-0.04924811110435203,0.000597145124125181,-0.017392066665640818
320,-0.20513481280583776,0.007149564539454264,1.0296980381085805,-0.12652556864942302,0.017246042762448892,-0.0007213120419947041
340,-0.18997195762568164,0.013264474025996046,1.0271761394669703,-0.1754130045697884,0.013604954217665497,-0.0034296416261019695
360,-0.30229422033148234,0.006344473140867441,0.9771246862448177,-0.2108166102065065,-0.009455773494779074,-0.0016112579779777945
380,-0.4639710036336025,-0.0023953729944636588,0.9936457143424604,-0.1317742732594302,-0.0001012205089096726,0.0029158547784534543
400,-0.5347655707204105,0.0006775417791465718,1.0073534769629926,0.001903022066738088,0.008503809236205261,0.02079951640047373
420,-0.7313973296684956,0.00173532754742886,0.993885208605653,0.14006283142701062,-0.00232056639769152,0.006290295571430903
440,-0.7762394134992232,-0.012738212267584462,1.0107908145799707,0.18979044565013234,-0.011285115115354063,0.017944759845134113
460,-0.8801774397613188,-0.020475228147351802,0.9953039947824621,0.17393478513417304,-0.0032053136473892754,-0.021379992497249957
480,-1.12364708712212,0.03809918236618739,1.0435869549622094,0.10950146819692617,-0.011401039366137568,0.016194683436361653
500,-1.2919838233005494,-0.004408373388979755,0.9806934825143029,-0.009467375602407794,-0.0002900858893458852,-0.0039788727898212575
520,-1.2220461484354128,-0.011704935164650708,1.0116095991554734,-0.1729565944914902,-0.005153310752224725,-0.015385110015284894
540,-1.380680055568657,-0.01492290417194348,0.9861679761995742,-0.1841846649921635,0.00926481178108488,-0.009905879514762081
560,-1.3540566354436212,0.008553206397201344,1.009405100337678,-0.19009230647882225,-0.004418372826604273,0.006253213602049096
580,-1.339897340810627,0.03987602587258568,0.9953772115030572,-0.103281953147175,0.011703676447070202,0.005249324349560388
600,-1.4844962819091656,0.020534865520941224,1.0115822153654568,0.022538022065857803,-0.003294214111702633,0.003530608376614655
620,-1.5329136989349799,0.0010265256923480506,0.9663562912710502,0.17882080042212825,-0.0051432868818854305,-0.004178653228518623
640,-1.361056007095177,-0.03802919881884138,0.9768119151153222,0.16596331086973704,-0.014786852892473584,0.0033502217029740267
660,-1.3197488743925574,-0.010822228315167286,0.9557257067393712,0.18920054405864054,0.0014188315380163853,0.0019798732318488566
680,-1.279754458032225,0.00345945023504067,0.9896834173104203,0.08112616551443795,0.0019274594048799079,0.0031959306532518984
700,-1.0928566078492776,-0.010586565822340546,1.0190997417826186,-0.06522234474675699,-0.006560148344657807,0.0053263840331164046
720,-1.0455288435988086,-0.008979207951137758,0.9546233758777481,-0.18807837274847655,0.004609315693210698,-0.0033497431859638317
740,-0.8611748585261056,-0.00832301367283261,1.0134680748470692,-0.17141028174224562,-0.00922002109847865,-0.006460390764716511
760,-0.7813201179828853,0.013593302959271296,0.9931730485402904,-0.1544362125249599,0.006505821711080955,0.005811403198648808
780,-0.606036149043793,0.025555387892477247,0.9664423159428173,-0.10801235499142199,-0.0032011740268188234,-0.008707199115487731
800,-0.5165759514920455,0.0046487785915202045,1.0065016755139973,0.04725926480891747,-0.0005407886960734842,-0.0055173302957078445
820,-0.3373367715370573,0.03244028722294631,1.0114177455443698,0.1608198125385465,2.870718470945953e-05,-0.0026898986266101882
840,-0.40829014838657285,-0.014595296048671665,1.006114344187466,0.20909210871356027,0.0006494855292236274,-0.01711704312385018
860,-0.19746251644439416,0.016831426768097988,0.9794291440321937,0.17349647483442282,-0.016137857644982188,0.0006850572500295926
880,-0.2600793663168705,-0.012624484106824558,1.0080286544039199,0.03366385892702307,-0.009465098684681433,-0.009769046485726015
900,-0.14157396279577453,-0.037918966368460934,0.9973355393152656,-0.07403886006705507,-0.004897774250241352,-0.00585962141608991
920,-0.15831576867453115,-0.0031343193200000785,1.012623695729987,-0.16230825423232542,-0.0035002155251695768,0.0014368365677122949
940,-0.10740794089949693,-0.010499145981892393,1.0078148742767379,-0.22190812244995148,0.01924979661571061,0.01522167735211311
960,-0.1571219771102121,0.013986397792305306,1.0203325656243372,-0.14430395907729063,0.005793181121122937,-0.007591618525535513
980,-0.07417032591416847,-0.04235219220271493,0.9706289972475125,-0.0707747447123628,0.002456808491375934,-0.010833901549430822
1000,-0.0003390287487153483,0.007862779963008337,0.9903242526247891,0.059952203024568995,-0.00802332386725667,0.02125827185086154
1020,0.038523069083839956,0.015694241002565425,0.9962784550510785,0.17994078610373151,0.0035420695105761834,-0.02526179230691335
1040,0.012868829204390059,-0.0018155419287006439,1.0012088677580409,0.20168466828556184,0.0022769226802300665,-0.008952445913740848
1060,0.06729385375695059,-0.006339626792926147,0.9747919585598928,0.14274138885404047,0.001974174951108776,0.004614004991064804
1080,0.0462869643064058,-0.004380772173932897,1.0060091529352202,0.06843612029339727,0.01584294556159788,-0.013523707015474173
1100,0.03447420851715251,0.0034535967870875156,1.0023568957961049,-0.07945527760840317,-0.006497197853977489,-0.0057483171158291746
1120,-0.046772148582370006,-0.0025395380355321944,0.9961438645652847,-0.1616804220427501,-0.003993626607559223,-0.0009829075850993259
1140,0.007957054015280327,0.020154140349915518,0.9833873762395037,-0.18594220126491995,-0.005104565145078692,-0.008684057716266668
1160,0.01873554122932303,-0.0013463020214790264,1.0110485956656101,-0.15485559386010733,0.0015288303532413863,-0.002109970279866253
1180,-0.03269048108296754,-0.0024354219994445394,0.994725245095711,-0.03011611730580154,0.00046652362474607816,-0.009608472983211644
1200,-0.030312536967517165,0.006031658773161989,1.0000862989088115,0.09641492458353816,-0.008340757526203871,0.009475679410912123
1220,-0.021866203048947003,-0.03385002680040872,1.020785173317963,0.19061752913874902,-0.019037882015004746,-0.0044158954133183175
1240,0.0011250462796162004,0.016621776815835848,1.0337371000795825,0.18373799878724267,-0.01827623630671289,-0.028879096845221303
1260,0.09293456425980465,-0.019553009804570854,1.0052535289406612,0.15493490645441796,-0.0060615462149120935,-0.003713040465315991
1280,-0.02891042665014987,-0.009676793266784604,0.9895772719220781,0.036385838012503814,-0.0042199727834689935,-0.0038552976374072556
1300,0.008121866213693018,0.03837591456443614,1.0167173754958423,-0.11405194408494856,-0.004527757175655167,-0.015351653887509052
1320,0.08625909612658812,-0.005894582822957989,1.0113552930562804,-0.1687428739550528,-0.001815460443675848,0.0001428067945206678
1340,-0.002144080384789147,-0.022870684847746407,0.9990664660069704,-0.2363554689038292,0.017770446501316543,0.02417035424143335
1360,-0.0195117149739646,-0.03231696614029055,1.0152853912801532,-0.12595177490738307,-0.014567365247171185,0.007888613400674368
1380,0.002656871816288333,-0.016601411448145975,0.9767804682228484,-0.06048783896373898,0.007935365562792382,-0.007295046980630451
1400,0.0029996221653049455,0.028667977532339052,1.0011851247674188,0.09606309704039132,0.011702763199999706,0.003702688457010698
1420,0.035433881536466136,0.017477349510183975,1.0115206717635659,0.14837815122763517,0.020886476357094445,-0.0045722062971482085
1440,0.1168830314816415,0.012025335500022301,0.9865707289311653,0.19919696112437357,0.01222923409216512,-0.005258739381578252
1460,-0.06598691117270311,0.019963755243939157,1.0145708243880334,0.15253897191031598,0.022944932888609274,0.007862626612281235
1480,0.0759864236673057,0.006839360974761235,0.9691425458241426,0.04842891405785148,-0.01650292134730505,0.010074621539218074
1500,-0.0584352604031785,0.000989721573075843,1.0059627731507867,-0.11452707270617526,-0.0017288224928110516,-0.003676532543334976
1520,-0.058050646324325085,0.01374038169361456,0.9980174364632074,-0.15968769586297427,-0.020394293309151938,-0.004810939888377271
1540,0.025714244694267592,-0.02377536487064079,0.9873180879427139,-0.1979238519408344,-0.015939484454127177,-0.010521779559901008
1560,-0.062036414139940994,-0.04112549562635342,1.0373725734564951,-0.13045977179464208,0.009476912807231347,-0.005250201900972996
1580,-0.10434795642343335,0.03849663871048942,1.0085896098226985,-0.03178146724163125,0.000313090636193991,0.0009971470970712474
1600,0.0019760019847548157,-0.008786407240609747,1.0257821298439047,0.11071002983723335,-0.0046442378551311714,-0.003159405332064773
1620,0.021744875364243445,-0.020132093442374346,0.9909848818403152,0.18080766803810205,-0.010112160268225052,-0.00857090877106551
1640,-0.07338026468973555,-0.02489208880549492,0.9679910017027705,0.24490624672436945,2.4793401361191435e-05,-0.004358608071054814
1660,-0.025113305157510573,0.0006815151359167403,1.0375846560651913,0.11664568095891445,-0.02403425835118957,-0.0012326669692579166
1680,-0.08463461018106026,0.008006129129744341,1.026485458902461,-0.006277293280865789,0.007136304884978092,0.0022349275233293736
1700,-0.0034653169891441355,0.029880723029067666,1.0216031309522715,-0.08815886803513737,-0.000531421518780966,0.010629988703153221
1720,-0.01543916702095116,0.0037537034398418007,1.0240699363650099,-0.1473233441061239,-0.009642251149344073,-0.0029562060980510884
1740,0.00768795623760468,-0.01557542127287107,0.9907317841405737,-0.19764062106265445,-0.0024728134210355614,0.031836153564630335
1760,-0.07883678653519309,-1.6780702506813347e-05,1.014914114201023,-0.12898805384852224,-0.015657198787474493,-0.007218786391445959
1780,-0.025644385893194427,-0.0021655702705487925,0.9817486947452221,-0.03355150568778241,0.01298111776095878,-4.99257988524276e-05
1800,0.030537190999184418,-0.004322367131565933,0.9867798312746887,0.10324546415311428,0.008496797045807112,-0.0071794000121510534
1820,-0.01767486390325907,-0.02157459468145022,0.983360609421635,0.1911112958267791,0.0004181525679099536,-0.014660034611355633
1840,-0.05819856812287527,0.02042102993108013,1.0146363286412425,0.1863594338933337,0.005795990394080546,-0.01292793868668213
1860,0.1168270652201635,0.006830402103050997,0.9523791342228864,0.11661074187030268,-0.019775730917757323,-0.01057589470190337
1880,-0.014124721729663446,-0.010975163263901706,1.004047152908176,-0.02436782358517802,0.0054436516619502376,0.013776313548979813
1900,-0.012717512448801323,-0.011507946672856482,0.9619635860116142,-0.10793297496605497,0.015629123452718677,-0.0007755675420134749
1920,-0.0009315825516158521,-0.011347009126577825,0.9834969440850034,-0.15027767333876535,-0.006896658785089338,0.0015925593858139072
1940,-0.04117154059284639,-0.028672687428395002,0.9813749686106511,-0.20478880709846278,0.002892650939682705,-0.02145581555917228
1960,0.03434420468476204,-0.0221274692887994,1.0180606261439702,-0.14407867076685943,0.006522676570124186,-0.0056726491064444575
1980,-0.025688431664513314,-0.009580223124309834,0.9935291818439529,-0.036623963390746354,-0.0025909881933917182,0.005889948186470011
