timestamp,accX,accY,accZ,gyrX,gyrY,gyrZ
0,-0.08340881163127652,-0.006676691178700206,0.989049833874555,0.002993217305506908,-0.003921530533347726,-0.015644565811579785
20,-0.04944738744173423,0.007338944595243922,1.0078755719694739,0.10132727971560015,0.0004307936921061441,0.001506149335042479
40,0.12361095719072553,-0.016893971189701804,1.019911788048515,0.1929289546455124,0.019810824157211426,0.0064476187482388845
60,-0.009330049388155116,-0.011620702940788407,0.9857825156516336,0.2003204034997502,0.003569309313269653,0.016311456002584473
80,-0.010427510361738168,-0.0025152913097115275,0.9835674850708196,0.10133296159411896,-0.0002742439692761176,-0.002089652897297011
100,-0.07085421371999916,-0.019843597775033413,0.9923106696227011,-0.03389111791471072,-0.018276279911006332,-0.01705655144037223
120,-0.0007172405832977999,-0.01016228999951488,1.0068111884728859,-0.13737567711597534,-0.009759294095947215,0.0018547398833266284
140,-0.007035900132822572,-0.017324625406182986,0.9855974415377076,-0.18107516519474964,-0.011501961223748592,-0.004233475034765931
160,-0.011818771646019828,0.008098779386438729,1.0190868097526702,-0.17650407082094033,-0.005725598987745851,0.007570957160203164
180,0.0423782825386594,-0.0005930739022637246,0.9826905095550188,-0.09028024800731801,0.003126634717177467,0.004621782194929788
200,-0.09666165221450114,0.011498111275530994,0.9935895512489148,0.037138543639286196,0.007420100375391012,-0.006912590294730352
220,-0.038799953192621514,-0.02703054882756179,1.012514670101494,0.12484353892105486,-0.004308267206710373,-0.012393954586900537
240,-0.0714629464803949,-0.016081796406876715,0.9946993728692879,0.16231510999225787,0.0032948379362141584,0.0006496892859136779
260,-0.06213017904011482,0.00590196079470808,1.0155763202206527,0.2097971539329999,0.0058874197713077924,-0.021799154358640965
280,-0.05417169796848349,0.016356428451200628,0.992545622352389,0.11294527266089766,0.007920363125282623,0.0015072976023108545
300,-0.16919462191496437,-0.013562157868710067,1.040454898978518,-0.05462559310304247,-0.017036404709420132,-0.00021729853241041772
320,-0.1387036417809767,-0.016877121385940077,0.9613185218355921,-0.17921806498127513,0.008092263003642573,-0.014914085564697453
340,-0.260267952094387,-0.023428225360057866,1.036866083544024,-0.18333480642913924,-0.022406413762716623,0.009068342056946368
360,-0.31213819649317465,0.01383723593608142,1.038533342905531,-0.18620931495117807,-0.0008182117381436351,-0.0011203401265764716
380,-0.5067786347426636,-0.006995970279451651,0.9823025983051681,-0.11127367218837426,-0.001960213695902277,-0.010128487559837758
400,-0.6088574117296781,-0.00828357588271062,0.9942446200040013,-0.0034787698490513566,-0.009753191040311996,-0.006936625465369244
420,-0.6744914730145508,0.003986339879556836,1.003549739453582,0.10644169996291739,0.005102297215791648,-0.005736311469257273
440,-0.8074358334140123,0.003475521010176839,1.021126700919952,0.17686728601258098,-0.011853222925219323,-0.011509628233565486
460,-0.8908488659784424,-0.06833052848107803,0.9872677714376746,0.16203568000019258,0.002262087454244078,0.021766690599066586
480,-1.0461691104983566,0.046794858079091464,0.9955455070820064,0.07793691989174964,0.0072329356926402345,-0.011842586283722492
500,-1.1952086653480571,0.02167777791903172,1.0184745518729577,-0.03652736659065288,-0.005906347026584176,-0.005290226423821733
520,-1.3238353141264463,0.012983727223281212,1.0013330005107623,-0.17411329215007693,-0.0049923748273905276,-0.002911041503596766
540,-1.3817402317465466,0.008454953144751453,0.9927984414031031,-0.2036719013321441,-0.011411506511046733,-0.014780659815457375
560,-1.542230334980088,-0.005365321871826157,1.0376153559975303,-0.1849343009909354,0.008789281318177296,0.010302701696870706
580,-1.5161736068426397,-0.010435630379296224,1.008563281370963,-0.09616913367338072,0.005795985183612536,-0.010119654694565392
600,-1.4846342990143617,-0.006655232333812916,0.980251462990342,0.05071220165909086,0.006411093483716187,0.0019664550810391656
620,-1.5179073790036237,0.013450474641842082,1.009737444374416,0.13290043980559385,-0.00041752417572604007,0.007726708653037046
640,-1.4851350904187697,-0.025467843839825883,1.025870699655595,0.15550949337350928,0.009147927101728326,-0.013952778087002671
660,-1.4478501755400472,-0.03802261689744474,1.007735470602892,0.15598094634384982,0.003933255357334578,0.003632566522960979
680,-1.2214135557906716,0.048528984828854614,0.9942475391195138,0.061966479334661845,0.00590650879138465,0.0038425161439006117
700,-1.137556135941882,-0.006369536354505283,0.9945489465952199,-0.048445023285092696,-0.009855003438007923,0.0017397715893763713
720,-0.966369802872261,-0.018243965242064595,1.0217742908521967,-0.16419374904706446,0.012726514548277121,-0.0016209948671909733
740,-0.8118986521878011,0.02157462875024883,0.9994104558553301,-0.1824746818625869,-0.01378024022570599,-0.0039080558913589655
760,-0.6611173178982317,-0.0038332112664207336,0.9909190379441658,-0.16547039694103374,-0.008123082128725524,0.0016008807943873854
780,-0.5780220931162289,-0.008729116728051847,1.0051520297913077,-0.06099502019203712,-0.0038943845313295436,0.005509331229495583
800,-0.5342535725817608,-0.0013384552856121265,0.9858622724228211,0.04033934286370218,0.021474919909756064,0.0062884762465978405
820,-0.4050623357262469,-0.005478366382315501,0.9754215124714594,0.1510077792200583,0.0009684044459651836,-0.006652254122943481
840,-0.2518325074322779,0.027915186184577036,0.9903534583069716,0.19405821721344013,-0.001556672724272586,-0.009004584528235177
860,-0.27097348946024136,-0.007092161273433482,1.0039242932639896,0.1559714248427511,-0.0018692152158150534,0.005669123065889128
880,-0.11946294166270566,-0.004330608174174143,0.9814809099013614,0.04155735623288133,0.0001393998408450415,0.018522538595722934
900,-0.06304105779897086,-0.014014436373429601,1.0005519447209683,-0.03985643928131857,-0.008047647115118652,-0.0035604983561855976
920,-0.03474029461059676,-0.02594025413928396,1.008716102611796,-0.1308241234069358,0.014188588286831122,0.004817838919588844
940,-0.1431961544762078,-0.008063185051145928,1.0121709342198655,-0.210810395688613,0.009715826907235695,-0.0025051227215205697
960,-0.12239634535719848,-0.01325896522064702,0.9549171680878,-0.17646826982987768,0.0022712593715245224,-0.009908685008932962
980,-0.01808114271475016,0.01087414844234245,0.970677715184868,-0.03746515564845142,0.0047748354805427235,0.0032740595975477523
1000,0.0009204262836748113,0.0026295457137905953,0.9972350371407449,0.061233699616648256,-0.0024937573661951264,0.0065572173224400275
1020,0.017859346850299263,-0.011070573064474792,1.0001198945328666,0.15978423373398234,0.0029657652578769546,-0.013579928061411804
1040,-0.005638764734850523,-0.02886040116447461,0.9984721612796511,0.21101041963855635,-0.006716508764983537,-0.012503920562555105
1060,-0.009186680011300716,-0.026055241046705833,0.9982093041820022,0.16437394821131468,0.005451004437691043,0.006896150733955864
1080,0.09422607220899484,-0.002901331248870486,0.9881008944891084,0.08508503299740101,-0.011506979721513084,-0.008642867621872862
1100,-0.019559598691369688,0.03486872594829162,0.9996835059828797,-0.08105204337707995,-0.014105769894754022,0.0034671382983761053
1120,0.027629583268492956,-0.00013597244062337475,0.9922998699035249,-0.1541538959879031,0.005083750762531055,-0.001129179621683451
1140,-0.009600836062495004,-0.013739270733759766,0.9623558808534146,-0.2218092521073741,0.01505267138078357,-0.011096366504883534
1160,-0.023900327634518343,0.033061859975012625,1.004451283000631,-0.1664110289363218,-0.001026643993614841,-0.008880803433285263
1180,-0.06777198736831752,-0.005221663706724015,1.0092258722394338,-0.0302570904897126,0.009498153072804213,-0.017606072513951562
1200,-0.05801129894752145,-0.02088579214193401,1.0170445069872014,0.08612225460182608,-0.012614207923582206,0.0068152811615966235
1220,-0.013730675194833437,0.022205633810744627,0.9971274577396348,0.1469680312419524,-0.0076387886675445375,0.0033486357368440914
1240,-0.024413479557517624,-0.03010158500228294,0.9840820576422131,0.21641162369074157,0.0038521978113587514,-0.021281022128492873
1260,0.013302297772283188,0.006560638347537503,1.0459589555545026,0.17892292611651706,0.0012004969501708126,-0.009298140920281148
1280,-0.04687985819270815,0.0128373384625227,0.9743064395984803,0.03263697616996607,-0.0007453801560042921,0.018291987716600157
1300,-0.004507661936916211,0.014192948418435781,1.0265176387672819,-0.09598169422587378,-0.02557178940019236,-0.0016048746177856439
1320,0.04618305450253572,0.0023742790597145952,0.9981476499948402,-0.1882974375772286,4.261408486761137e-05,-0.0024482871208679376
1340,0.08674289855206876,0.03879104286782113,0.9859338797803437,-0.1664705301334215,0.0019359863073858464,0.01234003646190411
1360,-0.017490333856111543,-0.02590778357662976,1.0004527775828482,-0.1467873721857276,0.012034501586424322,-0.005539863517126237
1380,0.02016960841426523,-0.015334232706005374,0.9661207792124629,-0.01940551384935919,0.008996396637661507,0.0034964372815479245
1400,-0.053788555900777676,-0.006228332386517754,0.9772551505892207,0.11673789415219916,-0.005053572191960131,-0.0018491434242512077
1420,0.06373298657769397,0.007478077648037157,0.9981686787022384,0.16067555667443814,0.009385324162047327,0.0044342453022541695
1440,-0.010107336665267632,0.0020801988305165124,1.00634601962932,0.21075463410194265,-0.008875697062620213,-0.00445426237373799
1460,0.05162236731311822,-0.006679826006685442,1.0083679530714913,0.1705895935399611,-0.000608857979067317,-0.016671002536642773
1480,0.03003346665028262,0.004515851901182748,1.0278327527135742,0.05903030021399391,-0.0017183611594266644,0.019060112079550138
1500,-0.0022855516424931826,0.006683978356518116,1.0004161911552876,-0.10298041675398585,0.008579720282435836,-0.005526690523680346
1520,0.025475036320406264,0.01884401014227686,0.9842871090126658,-0.18894059043604508,-0.0018768501370565861,-0.012035626332099791
1540,-0.03582903783775099,0.01845899276374105,0.9737733628755685,-0.15166623684192598,-0.006504265184323215,0.006434778967734449
1560,-0.0191145477628475,-0.0013660296098006194,0.975763494363028,-0.1519840532216385,-0.0037304326892963285,0.007379050767756827
1580,0.0436091343084528,-0.03335940664615516,0.9902636325551789,-0.013661673953214128,0.009166927617770949,-0.0028805868007734663
1600,0.024194874140357744,-0.04202794069256714,0.9716509163910322,0.072365742139793,0.006130343158348154,-0.005092078881016597
1620,-0.008216933978669386,-0.014306227061399921,0.9662127053795643,0.21704343543448684,-0.008950670786108991,0.0014203607408955151
1640,0.02484544220212729,0.02660661671000364,0.9977466910600469,0.178969367000075,-0.013308910593886161,0.0005552516350475032
1660,-0.05201090035900618,-0.032425965529819856,1.009375991801752,0.11077859990700714,0.00225989023484839,-0.006926810833588462
1680,0.03357827740167572,-0.018417588344581914,1.0019903235548178,0.050761863107156684,0.015122479711287431,-0.008680701781277259
1700,0.09132871134892906,0.03805598668000133,0.995806914261669,-0.10762953669324407,-0.010085408207450656,0.0016798596102853332
1720,-0.0766898763613321,0.014707552128907066,1.0493916522212645,-0.17948761617849815,0.013724382754040755,0.0014905514479073851
1740,0.013249164253009002,0.0279239724865413,0.9873613323064573,-0.17442715004246312,-0.0199018772594895,-0.005413413878274702
1760,-0.06608169029159038,0.01026468472365936,0.9797197344016338,-0.12246924084594818,-0.004664992245168922,0.009061205119326484
1780,-0.0084814872105007,0.008813003610818467,1.0091948913169801,0.024704508813850206,-0.0021867313714013085,0.0051864061837838945
1800,0.01662898975130484,-0.0646200600879563,1.037074783465986,0.08737364625604588,0.0006456503881698634,0.0048096826492423925
1820,0.10555476970267015,-0.011862111314292264,1.0405435366613336,0.16750562953227444,-0.004839690659225639,0.0008906867393730052
1840,0.019574609025427774,-0.0008544891218171246,1.0089114542435142,0.206958878023516,-0.0008547605317576671,-0.002141414746345026
1860,0.0016205137636520247,0.0005634363812276991,1.0341398309755703,0.14168038224108626,0.00031083373755545155,0.01109092376602417
1880,-0.002950996660678469,-0.05327477551521221,0.991365707171238,-0.009641666405748064,-0.014761096266073873,0.0070985230019785465
1900,-0.027775670372347246,0.001476048323910879,0.988714024326202,-0.09565542368170998,-0.014782100927840719,-0.010199050190637065
1920,-0.046050338286207894,0.009057899765576517,0.9851750092697399,-0.16877587081111609,0.01209586887647016,0.0009710332734007923
1940,0.022572601448198688,-0.003986047489457641,0.975588632186101,-0.14323511028691,-0.0007118677210749989,0.004187018021649876
1960,-0.11702726428727278,-0.01038101664164356,1.0028128002695678,-0.12561297337195707,-0.0022396817375339175,-0.013108864421912161
1980,0.014839049384815672,0.0069641662669117236,1.015736561560259,-0.0014536378492431862,0.0014523798952031258,0.009213599093369655
