timestamp,accX,accY,accZ,gyrX,gyrY,gyrZ
0,0.0006672351035538832,0.01327759622684464,1.016645337595396,-0.016675961526361263,-0.00984957120636269,-0.013162800308108688
20,-0.07422679790916269,0.014298627149508166,1.003691547178942,0.12058881242307302,-0.006658369914978293,-0.0184256203174931
40,0.04542065340994909,-0.0020672447753246263,1.0042267305598018,0.2023383727162916,0.017792381518592307,-0.010665893876944707
60,-0.027804855645800614,-0.012191562806130126,1.005692377447118,0.18391273173226635,0.007005611424422624,-0.007691639383308346
80,-0.034255779824589445,0.01698100858276706,0.9738460194596648,0.11702647904765742,0.008796633935409807,0.006276117762493743
100,-0.031336404124049845,0.03128267478070854,1.0231757896764062,0.018073851503214607,-0.0014038421092899074,-0.01509109455813858
120,-0.021632083219521717,0.050455830333325416,0.9990510187052533,-0.15042269856607815,-0.007257369961679389,-0.0022682171942601556
140,0.009227969888450453,0.011898820824318496,0.9974993766231565,-0.19081732076289248,-0.005642009525199812,-0.012039543427335486
160,-0.03281296603782809,-0.013702177587992644,1.0296719988797551,-0.2160418544394333,-0.00152061336365383,-0.0009191511482124675
180,-0.05372041853480586,-0.012486828287198473,1.0263404024301548,-0.10489922926257932,-2.289876223050511e-05,0.01199171408108671
200,0.061753946630568185,-0.0051295201195778175,1.0187089260548674,-0.019370549614139865,-0.0016529693733525691,-0.0038201783611701537
220,-0.023480045207271014,-0.008366871823704694,1.0020974074088906,0.14286779876519823,0.014564390131287722,-0.00896833855186665
240,-0.1472577452232527,-0.018518723652070686,0.9967744816870291,0.22229083805349728,-0.006971468453415486,-0.008113420800704487
260,-0.09078349781926412,0.0013074963419642425,1.024487624661529,0.19871854361676047,-0.005682437759086132,0.017165542666688512
280,-0.10200244032093343,-0.02529752836945783,1.007297180315375,0.11259978305259134,-0.0011804498438894946,0.002401673560041937
300,-0.10842777581769518,0.006719989062642588,1.048116734135824,-0.010176579580252592,0.008023462095162784,0.008980216733656463
320,-0.28422867901045423,0.02145514093599357,0.9737895969363154,-0.12963179568726127,-0.015104082716556895,-0.0019409838582271678
340,-0.3389494272436414,-0.013614057680038706,0.9713419985131004,-0.19046449647116845,0.00751255049553315,-0.011367854888356439
360,-0.4137850194035002,0.04458773836929034,1.0380546926965697,-0.1438003839399049,-0.010793653574440511,-0.00027121187762509466
380,-0.4223384493189521,-0.022580364253649808,0.9958162320881339,-0.10069743519748825,0.005673220479236752,0.023440244999051764
400,-0.5448889366965375,0.06021869464364494,0.9729267963861054,0.040805111203229875,-0.017584509969536227,-0.011863591813390969
420,-0.6965979951562182,0.006371984782341181,1.0365842584560183,0.1446182977536702,0.0019868627990447564,0.02475252517947187
440,-0.8149264816943564,0.03264898144924231,0.9873590353286814,0.20487573712422935,-0.0008826027440535123,0.0047457329678092415
460,-1.0107332399765643,-0.02722662037514332,1.0139181655763985,0.17162528862975177,0.006060957931937782,-0.008126226714042317
480,-1.0470023628841638,-0.025162483586040757,0.956279122915888,0.10902171292625597,-0.01634621590791762,-0.010230015546078604
500,-1.215570623933253,0.0071185801193304945,1.013934063095113,-0.026921359924682118,-0.0013796026165783025,0.0007659898725747787
520,-1.2434404722686363,-0.0014127933112250094,0.974578205791929,-0.12795326802723353,-0.004849250128435956,0.015891964896644083
540,-1.3365505014160692,0.014694953551750574,0.9715514617211292,-0.18229489079807074,0.007532915230113381,-0.011352194997130957
560,-1.5413024777507973,0.00782879657544242,0.9903661326546626,-0.18768025903192856,-0.007355996683068006,-0.001153778775849958
580,-1.5475140473945588,-0.009982369898175846,1.003213362675946,-0.056140438460051845,0.00718098094197506,0.01163810356074098
600,-1.5485491474218938,0.018372373972157293,1.0092728750678532,0.05356320917791425,-0.0030561524785623303,-0.004139369132055542
620,-1.4449283958164523,-0.0024008181573095255,0.9868901098885876,0.12087835282472938,0.02370419265561456,0.0008757665434952528
640,-1.4788278078553487,0.028622824737803677,1.006962449119279,0.24552642296798216,-0.0008700391754745522,-0.01642781456695471
660,-1.301580985023341,0.018450788104010633,1.0097863912755327,0.15466946829155745,0.004187104215060626,0.0016366146886198686
680,-1.1940901712226666,0.007887160606767609,1.0103314907867291,0.07377797651690814,-0.0068049173253863495,0.002230995923647344
700,-1.1080808903689714,0.047242168486976745,0.9892832375538908,-0.05387592316934446,-0.008739005971175325,0.02250755236272085
720,-1.0437964023275428,-0.02678638617234745,0.9822759880615833,-0.1866041653635378,0.0009370501112320504,-0.008252238001039133
740,-0.9035841683478818,0.008142581733565744,1.030579908238242,-0.21404688637071995,0.012014265896568954,-0.008375067308983854
760,-0.6824698998445562,-0.007769527610796533,0.9966201997781556,-0.16885739130494928,-0.002030886552494314,0.009118118936675497
780,-0.674620979008831,-0.007406279577710863,0.9574264044384143,-0.03080874592662252,0.00922803556686853,-0.0030744666167005705
800,-0.47006454456781555,-0.007863203910181806,0.9980356557823292,0.07831016756538156,-0.00800750961979481,-0.0024182240339538277
820,-0.46993871671515847,-0.005151716572491666,1.006014989012155,0.1627664345920944,-0.008836108772168368,0.007879161575868529
840,-0.36239028710058774,-0.0025342693467098392,0.984104648177171,0.19603985356610434,0.012054788628878335,-0.0007309570286883428
860,-0.17806460703430954,-0.005784028132832528,0.9959627924691539,0.1450091563448749,0.0006739340685148753,0.010453784040669161
880,-0.17458831195056068,0.026737630929856097,1.0102480006144954,0.05957677844701466,-0.0027471961641901957,-0.0019793759165349484
900,-0.16658286795444385,-0.023318781492323745,1.0252894672396107,-0.03135271367941959,-0.005944032457098092,0.007055129407273464
920,-0.14410581023799693,-0.009348215015225035,1.0077807162132502,-0.14033388530278984,0.000500791000177286,0.024008578178123803
940,-0.010535754224715504,0.002869499155869519,0.995384419518109,-0.19226252878199832,0.007757000215728972,-0.015398333918181937
960,-0.04573722152453516,-0.01567496595000899,0.9963982470187297,-0.15541746109157795,0.0011337219588907264,0.011309656675025903
980,-0.11420189840020414,0.013773887766405719,0.9778014097728069,-0.09463013355792316,0.005433808584491555,-0.006279673102585489
1000,0.02825962761588431,-0.005733091851622778,1.0172734895539417,0.05111181318147271,-0.005437063709225461,-0.004226768789743922
1020,-0.0032111459261807036,0.012539773417445752,1.019922597432798,0.16928384078900235,0.0006201324591028752,0.002727928136672261
1040,-0.0017122575789079164,-0.026429566745407227,1.0199456809032996,0.193291295287369,-0.004289038873669277,0.008626585412303772
1060,0.03697178502046518,-0.04228770765361444,0.9769896835094741,0.1425694433755899,0.006155310454072149,0.0042995959615861005
1080,0.0022138042845492485,0.013377720087434947,1.0123486667209292,0.04116406625573124,0.001810944823036797,-0.01157257006143333
1100,-0.01984101911962658,-0.007083399873539939,0.9899400351941806,-0.07218045683052639,-0.009060594017000595,-0.018142385398271836
1120,0.05261089626901837,-0.018802716790522853,1.0083055571179629,-0.17968651554334522,0.005685517083623158,0.002764667475374962
1140,-0.003625348505329761,-0.015316691229242398,1.012880070288182,-0.19040784056577512,-0.014246347597445416,-0.020746108038194735
1160,-0.020861917368930068,0.005484802502408145,1.0038057952899229,-0.1365264228669279,0.004350569365414521,-0.010928910955364739
1180,-0.0957280682929208,-0.002951564559956612,1.0169290079315256,-0.0609785536136094,-0.017979901703699327,-0.0018323249047992832
1200,0.10638641532076024,0.006774128476970779,1.0358422665455596,0.08011210840452074,-0.015168771505386773,0.008027776184858131
1220,-0.04953714839580417,-0.01873824817514523,0.9868122210139041,0.1861526955007257,-0.00202592433852603,0.0050901150608780735
1240,0.020276366215018184,0.03668895309292415,1.009587947569178,0.17098562443628568,-0.010702407774162209,0.009017013281294818
1260,0.026444020229098333,-0.001035336834111785,0.9961003110873359,0.1667562497539171,0.005594191620965199,0.004140818673532469
1280,-0.020622156506882514,0.009306822399806491,0.9941131646610303,0.04543310684880632,-0.016415503908702677,0.006349155114981578
1300,-0.026713278678933517,-0.006948157943889595,1.0044975803815492,-0.08059283612138977,-0.008042758778648183,-0.0024203488652093314
1320,0.04128183455174832,0.004041451855934557,1.00245126800606,-0.2021222101101199,0.0063506681742104614,-0.012257516771130862
1340,0.043153160892326806,-0.016385866637735252,1.0236197184478824,-0.16290824921267807,0.011464790264032375,-0.0014745700304757445
1360,0.015418869123135021,0.02828850812735271,1.0225743199991875,-0.17051024372460213,-4.9999000211654384e-05,-0.002332508064648039
1380,-0.027614888066868775,0.02252907598499427,0.9935522383158748,-0.052787336579266236,-0.003290257870488864,0.017978328312469677
1400,0.0072812987695164465,0.05476008526903293,1.0184444234357537,0.1021413250026077,0.004996426864287711,0.009204066936965493
1420,-0.056872425060172004,-0.007950018259625822,1.0142248172066093,0.12507304788575774,-0.003302715218040069,-0.014449157743934671
1440,-0.03808482575349752,0.033711009012550856,1.0335624236975804,0.21133411426251264,0.02898228927350907,-0.020441930847535154
1460,-0.04145406142205489,0.011445215441765775,0.9949410400596947,0.14019473408020722,-0.0022245285620809165,-0.00903657517336873
1480,0.05400490790407741,-0.01676498442173013,1.0179710992532878,0.006104582224116081,-0.0031449335673871055,0.0067038386199739786
1500,0.010369992657455094,0.014623381728869607,0.989339711811152,-0.07656490075701547,-0.012601011973250292,0.012659698696849155
1520,-0.011109646331939008,0.004718007210573808,1.0003216051084727,-0.1604416136095381,-0.012269626237448752,0.002839094832371212
1540,0.017165779272898612,-0.02932723559485801,1.00160238469507,-0.22196682052241243,0.006427332782548925,0.00402582976883988
1560,0.029157638626328135,0.0019658281097105863,1.0206381067139252,-0.16695220575023784,-0.006256204392653075,0.006269893017952365
1580,-0.11361390047906265,-0.028980068212277412,0.9619868205071406,-0.03619577232884219,-0.001837907857526918,-0.0006518899653249783
1600,-0.05483543940234245,-0.009724293774648658,0.9951050177232517,0.11681113909601912,-0.008026857133815872,-0.0050518905807685355
1620,-0.03664358462745849,0.004798422530061286,1.0035861230967356,0.17532169759119562,0.0038984164124790804,-0.010081067973187712
1640,0.050568979668764204,-0.003223159274935878,0.9920016236108447,0.19025990071174617,-0.0032239412540540986,-0.011170399229597103
1660,-0.05644640602619662,0.011144145367134177,1.00366808901434,0.15247119134767298,0.0014285954475838506,-0.021718264959100536
1680,0.028270462412950247,0.003464943867260354,0.9923903561065266,0.009431979395851187,-0.008415328526309045,-0.011737894289764779
1700,0.05282662561467172,0.013567176417692714,0.9800749547664814,-0.08877351354067456,-0.0057071195576277245,0.006142627486436347
1720,-0.003183587053959388,-0.009282604568118939,1.015795119778086,-0.20531423794968373,0.002729510452075385,0.003062249823808617
1740,-0.02904164425179227,0.03639610667465419,1.0129678387527452,-0.14936105795424306,-0.0023145806854100357,0.007743126871162299
1760,0.17746770266926462,-0.03602828662451574,0.9736061332854141,-0.1463324991707841,0.002822124525217085,0.007315468843890682
1780,-0.001449368349657065,-0.008151591069241262,0.9930429098194029,0.003804947470094331,-0.004546739717352645,-0.003435375046825805
1800,-0.023999929843140224,0.005685016075716516,0.9861280401179673,0.11310455101004169,-0.009787010990721726,-0.011803774606034975
1820,-0.0020215620076022307,-0.0069503913304382785,1.023739178176916,0.19628514296920446,-0.014318660044952167,-0.007985491785521704
1840,0.07993656373395543,-0.005128019620132813,0.9880832221936177,0.1823949189832953,0.00925716673435848,-0.004803929802877502
1860,-0.007913481070988779,-0.01136780141564976,1.0259240904716374,0.1102477550775323,-0.0024524047613863663,0.010053658920594415
1880,-0.028228216816399688,0.006147753778672825,1.0066416730624868,0.023282910474637708,-0.024706555806795625,-0.01446598155660465
1900,0.001041014961935776,0.022267949142212036,1.0419993213052912,-0.16743389291457073,-0.01676510262017888,0.004194237233564481
1920,-0.01155910947082631,-0.005031178306388341,1.004943508973568,-0.19015218162704514,-0.0008401319868525995,0.00396648829629286
1940,-0.000878121405786003,0.02264875149805036,0.9820311780386717,-0.13616950336087363,-0.004278201463910329,-0.002688778271615974
1960,-0.03799286225312879,-0.005547281622019149,1.0237415331225468,-0.11450950563226185,-0.0017930504132423523,0.0013480917386519025
1980,0.01616678507397907,-0.0070507804480809755,0.9837225680888286,0.010230072697087774,-0.00834338088811165,0.0053876272092900305
