timestamp,accX,accY,accZ,gyrX,gyrY,gyrZ
0,0.016017390490420974,-0.03086015728482606,1.019149991488488,0.021519172658516106,0.0018644675863626317,-0.0030153357194805776
20,-0.07829977099871532,-0.017336621931289597,1.027701291318668,0.12048962567631355,-0.005716006641840751,-0.030267801423657304
40,-0.0718775365001537,-0.021123284921091022,0.9984899278888084,0.20774377068638478,0.002840582923344909,0.01989150461213326
60,0.08615385880734794,0.00046175628359313304,1.0054734565515702,0.18205530556001132,-0.008894670863547546,-0.00028907513040027095
80,0.06946803555337236,-0.02745117102939817,1.0026234518045087,0.08581836859756956,-0.007408264527497944,0.0035984134610561485
100,-0.030861712598678842,-0.0038222099094829187,0.99037622976296,-0.022542462732306093,0.018356669689869324,0.009679852372985756
120,0.06600510807691559,-0.011746349479447856,0.9843563232491138,-0.08934096882773815,0.020197457887873884,-0.00025280081579489184
140,0.09433873967549194,0.012934548327035967,0.9566563131006967,-0.21326260645967196,0.007660054877194409,0.0024578609497357814
160,-0.022874571783463082,0.01931994623126165,0.9568806168538886,-0.19864688125723798,0.004668852890075408,-0.0007303784809769131
180,0.039092407645104674,0.017267329706438996,1.0244334488867557,-0.09965255524131293,-0.0015001533685861555,0.008920267908690693
200,-0.006248989666615565,-0.010029213095034007,0.9934031171943791,-0.0031760345722091823,0.00044094595579454994,-0.009807568749599888
220,-0.026272349958246576,-0.012969417057953372,0.9836218933498447,0.09850189720539161,0.010312084225678579,0.0008755767683477098
240,-0.09209552513625453,-0.007740288677321206,0.9834330458710346,0.2123178557094862,0.015155516839422132,-0.00037961786778466824
260,-0.14281332484018794,0.009262609891886176,1.00261979139424,0.16279016831859683,0.008709444202147802,0.008048553794409927
280,-0.14162304063284725,-0.007512903142651708,1.0181630401825972,0.08036800637511597,0.004250154961093199,0.010479746902976953
300,-0.19043149180389643,0.006100251845993168,1.0095975084934345,-0.023488264316543852,0.010899379891545376,0.008240425051973527
320,-0.21042840210977115,-0.008495420680343263,1.02487607360316,-0.11943265731810704,-0.013739338354669488,-0.004114400276509208
340,-0.3367035696616161,0.015920257898508938,1.0064850277537147,-0.17917706905325648,-0.008317628162553478,0.0018841841681318527
360,-0.4609227958017085,-0.007492268904922531,1.0223864555012656,-0.19462020189658977,-0.014518959907782106,-0.000603938931194596
380,-0.5332107563406179,-0.01774261902894824,0.9896931463060601,-0.095723874964763,0.0028861179646190267,-0.005120385068027629
400,-0.5995795894892233,0.023056143038308382,0.9988997702411361,0.04134897146533881,0.01740855830040937,-0.011917723805052254
420,-0.6915933728801347,0.0003963344310838294,1.0319496039684464,0.15515962023271415,0.0036210464557654594,0.0016822739485700927
440,-0.7657900991996806,-0.010294627545475672,1.0168382166741643,0.14885078691864922,-0.011090734403729565,-0.005156768247716124
460,-0.9478285435495309,-0.011106105611265597,1.027597235569623,0.19928784129797317,0.006382593281506397,0.011203221178377522
480,-1.143875953727735,-0.015229061824616951,1.0518383947927403,0.07807487650104257,0.003964036707994116,0.002169541333218799
500,-1.2092026137975753,0.014643868471789676,1.0176667988278822,-0.03097387749773489,-0.008921303469423684,-0.012094093804135828
520,-1.2464950342581569,0.03743277109060162,1.005132805570999,-0.14349477065491756,0.016371781979261837,0.006381527809499327
540,-1.3328266263713748,-0.035931980836537716,0.9822662461199754,-0.17520753951691798,0.01431684930015125,-0.0033483468869390416
560,-1.5448221765339594,-0.014964765262822357,0.968376193914378,-0.18137104742244795,0.004310286319598978,-0.01666411376788571
580,-1.445084504662611,-0.011951632582149534,1.007887281752649,-0.07906140124764208,0.013997841507926118,0.0022434225533116336
600,-1.557931222937107,0.001144219113355875,0.9707646594237467,0.08353833235369257,-0.0074658121191192185,-0.012174291947442519
620,-1.4276010084146318,0.0029496993342269435,0.9986797010189166,0.1421778747746034,-0.004113139399418247,-0.012146675799461026
640,-1.4912939605881153,-0.01103653428529449,0.9814699238365294,0.18121136662152784,0.014982391103406316,-0.0018831200180900532
660,-1.3988282770943063,-0.029954842605053714,0.9862393910714654,0.14729692544111841,-0.0002648167473672696,0.010404104489050856
680,-1.2576982895433233,-0.0054839430682652205,1.0190763799270017,0.06536879528739496,-0.02268392669415575,-0.003171625484289658
700,-1.1533634119755192,0.018032731312942224,0.9906012475427763,-0.03288518541250108,0.006943589772476,-0.0036827101414714514
720,-1.019232543239335,0.024182108890777147,0.9964149489497445,-0.14158203790515198,-0.01393175902444107,0.004235065714924646
740,-0.8836371718409388,-0.011550381194607235,0.9903288374395185,-0.17577845596540556,0.0038721056419782395,-0.010256473681143461
760,-0.674543168855129,-0.011551696384866946,1.0080847437497897,-0.19142602151177163,0.0007564020979946859,0.0035855657961863623
780,-0.5910843573734288,-0.01486863903001297,1.0136291209590578,-0.11453457835845371,-0.008941814876646222,-0.012204903803188867
800,-0.5746052716698975,0.021024631911558164,1.0221606881808234,0.0222050927053415,0.006102809230146673,0.001191363080262653
820,-0.316437443153969,-0.009939826431029742,0.9981046465633171,0.1478791649934952,-0.004247606853651378,-0.01136052151903589
840,-0.4472393296732005,0.02474931978675601,0.9816976796308354,0.22323612928740072,0.008618895667651127,0.0022925598529324564
860,-0.2166924848558048,-0.003711152415578369,0.9919465731785455,0.1528206312122213,-0.017213370728174637,-0.003667045655946791
880,-0.18721703062985814,0.022214965116780304,1.004702430294815,0.058508040637313255,0.0034325110316947363,0.008349541514910238
900,-0.10882395652831339,0.02759145344198818,1.0317645112141824,-0.04778674409797791,0.014280823706334551,-0.02544917176402415
920,-0.11762439258026405,0.016839689800672627,0.9916557644715386,-0.16230245263909845,0.00401625844755795,0.00503172835978156
940,-0.04989028932414197,-0.021206027087302043,0.9965858942534432,-0.21619449591235018,0.006019653711355689,0.002199730597448666
960,-0.03692351875837715,-0.030917310610007843,0.975961576686164,-0.2026065225333407,-0.005752425844351813,-0.001912103992810373
980,-0.05582517444880734,-0.012633926838020268,0.9981616058921033,-0.03911995769287654,-0.0010446267173866636,-0.00023688430613588233
1000,-0.08046991663506345,-0.01752122825335302,0.9991343425227416,0.07929305089385563,0.004292521695651812,-0.014280271401929792
1020,0.06292848983727953,0.03612829789838228,1.014882089530632,0.15863820332161155,-0.007579117626038814,-0.01286407355091517
1040,-0.09403799237847373,-0.006577874413733771,1.005934481985276,0.2360223421341915,0.003664194306638349,-0.019638583456021475
1060,-0.025728668061770092,-0.02900870326022107,1.0132695163012995,0.15716716386891735,0.00834602286887575,0.014836326787297358
1080,-0.059406223049895,-0.003279187074392112,0.9829229296821602,0.028224158252073403,0.017498707870610978,-0.005229358720434494
1100,0.006186237140587697,0.020599689138347,0.9743089307952545,-0.04491334603441316,0.016792083025720342,-9.251971918120664e-05
1120,0.09760388184206159,0.0015803891687807378,0.9745792666256989,-0.15376975025439904,-0.0010230752402192924,-0.008864347254645749
1140,-0.03604229190960118,0.006110935327702689,1.0091531746218216,-0.21176421129625414,-0.015206164319754432,0.005901237256326742
1160,0.03828735944345013,-0.020342226984975346,1.0218979934873647,-0.14453935348273986,-0.007786730294657569,-0.006639609458501656
1180,0.02829066049571845,0.03303308342622869,1.0426456007608071,-0.0625998061268018,0.001682296719081192,6.044348289252698e-05
1200,-0.017408330188206356,-0.024634671456714288,0.9978931376700306,0.09326633309263589,-0.0040355017227369,-0.009581729589986354
1220,0.04646911750486587,-0.02773880788986523,1.0019058028291452,0.17261679562188184,-5.492415131153833e-05,-0.01505717949568385
1240,-0.003283765364550236,-0.0022681050037602177,1.0205241169990005,0.18340318588165522,0.014441695871249475,0.004655364602343486
1260,-0.039368212129971,0.01244687122714961,1.000151956669741,0.16883863099177593,-0.013039187789492632,-0.001964240737101286
1280,-0.013502939591053465,0.021700198966115677,1.0233694705338416,0.05094468138516939,-0.005270281530821528,0.007804748144827815
1300,0.08915522639026402,0.024346100025259814,0.9861121920714172,-0.05999091360341204,0.004342044591507432,0.001930191296831743
1320,0.007051574243315389,0.0013197614420898407,1.0311859609229965,-0.20275096969436276,0.01218325678266796,-0.004060909209292943
1340,-0.03200243337263583,0.0015410832818954173,1.0096553600249132,-0.15887818785290375,-0.010117604861578072,0.006721689064810686
1360,0.03501662427044093,0.014092500749867834,1.0000120841489495,-0.11892171337600714,-0.011933430012321961,-0.0052429855670962176
1380,0.036842231837186254,0.023433541994166356,1.0168206986872208,-0.01104807432774704,0.0018177722676167253,-0.007640117718649173
1400,-0.07152527282589854,-0.0157633080569494,0.9860452084529063,0.09353717696589531,-0.005780852152796691,0.0067097009764326854
1420,-0.07406378451110707,-0.013623777888452305,1.003343185588756,0.16782373028457898,0.01056993558896511,-0.007565444246328552
1440,-0.05804765781993084,0.012691399074032073,0.989788338629987,0.197184485511408,-0.013695738962439195,0.007490858577693627
1460,0.0006499768195575635,8.840358257301275e-05,1.0001189920255826,0.18413326569427502,-0.00981631830623936,0.011070426173496992
1480,0.046741835792183266,-0.020881019785132803,1.012244349842813,0.010996176087796947,0.006125245590625709,0.0024356820300259823
1500,0.014553224660563868,-0.005917293287150721,0.9863777455919077,-0.1373732908830566,0.006366539257734592,-0.014042507297380524
1520,-0.05250067225823052,-0.018416121450628476,1.0298583396599683,-0.18003867592563824,0.004231061056475367,-0.006009749307156179
1540,0.0014685807778925708,-0.01648652502934556,0.9935134920029042,-0.20181104402305786,-0.008101570929073017,-0.005254635280481284
1560,-0.00040560373177393516,0.007654081981066948,1.0081867840578183,-0.1318947108827937,0.008030653874575302,0.004353532093294451
1580,-0.011932219912221924,-0.016471785983288884,0.9815410704505515,-0.039462237703212555,-0.001725616076396104,0.007384257166361932
1600,-0.004167128956808287,0.025125455698721277,0.9757205830202771,0.128230798442709,0.00811564403824315,-0.0025506690810960446
1620,0.009401880744658656,-0.008401719317476212,1.002380387524463,0.18876104347059822,0.0030823459856950037,0.005443595666638251
1640,0.04364190117667162,-0.023368986345407974,0.9875282554257219,0.19279800051562754,-0.010378195370740308,-0.004782428161393866
1660,0.0157142840651636,-0.011771172655084457,1.0077224076963713,0.16451003777122103,-0.007822704975801694,-0.01347132985667541
1680,0.03559786694784149,0.0006323794547770858,1.0091680958725966,0.028458901512137317,0.0026864352214459614,-0.010172070591134778
1700,-0.07574913406710501,0.003808348045269753,1.0159752652317613,-0.11295901595468281,0.008076849145975128,0.00826930184242737
1720,0.043626597344723,0.0413867923929119,0.9824916022584305,-0.2188180993434759,-0.01699080900699243,0.011629173510312778
1740,-0.05055557497229734,-0.014486617343989214,0.9925547787875045,-0.1768434085551272,0.0036372631893467726,0.020385625992466388
1760,-0.01689485909886924,0.02938399852438151,1.006960387006039,-0.1352401585154163,-0.0005257010221399667,-0.00024991236921148157
1780,0.03607424434223834,0.005538373816799124,1.0129571141560145,-0.02607985285080132,-0.008872157993192827,-0.005426078597146059
1800,-0.042413289443362624,0.01508440865562827,1.0170685690539751,0.10057476674869696,0.010437567758860613,0.029720690904843403
1820,0.027607793841248,0.04580866757458048,0.9711683189965993,0.17044306286057037,-0.008190386508971265,0.005278893944366071
1840,0.02765554084331959,-0.04110375192529296,1.0046741751036536,0.18422225231619893,-0.008894910667728996,-0.006678622499813162
1860,-0.07414207462244068,-0.025282227698203708,0.9871022115669016,0.11783736358251493,0.005644211989534483,0.007437477118084533
1880,0.0225874736756144,-0.0067613196561645975,1.020815351560551,0.010579451641137879,-0.011977818490195566,0.002871265628661363
1900,0.05169061084786905,0.0065860391529278415,0.9771385040401545,-0.12679484144166026,0.012881048376059911,0.00076268996217663
1920,0.04178179649527765,-0.024593069277617615,1.0341164146943758,-0.1540951537651257,0.009082799583842087,-0.005967167313131532
1940,-0.042438745798552065,-0.020263630367924054,1.0017945112029776,-0.17840643388515906,-0.0006391443868944231,-0.0007873662160565834
1960,-0.1255048074133141,0.008474482170344638,0.9725343672159267,-0.10877034035007525,0.007651420153937664,0.014962380656471506
1980,0.002579175313141247,-0.0034046540595948304,0.97324112416927,0.018798140480012257,0.004288178763955658,-0.0032065230134420072
